Word,setup_loop.thisRepN,setup_loop.thisTrialN,setup_loop.thisN,setup_loop.thisIndex,shuffle_loop.thisRepN,shuffle_loop.thisTrialN,shuffle_loop.thisN,shuffle_loop.thisIndex,trials.thisRepN,trials.thisTrialN,trials.thisN,trials.thisIndex,trialsBreak.thisRepN,trialsBreak.thisTrialN,trialsBreak.thisN,trialsBreak.thisIndex,trials_2.thisRepN,trials_2.thisTrialN,trials_2.thisN,trials_2.thisIndex,trialsBreak2.thisRepN,trialsBreak2.thisTrialN,trialsBreak2.thisN,trialsBreak2.thisIndex,thisRow.t,notes,LSL_Stream.started,LSL_Stream.stopped,setup.started,setup.stopped,shuffle_stimuli.started,shuffle_stimuli.stopped,Instructions1.started,imageInstruct1.started,key_resp_Instruct1.started,Instructions1.stopped,key_resp_Instruct1.keys,key_resp_Instruct1.rt,key_resp_Instruct1.duration,fixation.started,cross.started,cross.stopped,fixation.stopped,stimuli_prez_1.started,imagePrez1.started,audioPrez1.started,imagePrez1.stopped,stimuli_prez_1.stopped,response.started,image_resp_p1.started,p1_resp_stim.started,image_resp_p1.stopped,p1_resp_stim.stopped,textTimeOut.started,textTimeOut.stopped,response.stopped,Image,Audio,response_p1,corchoice_p1,Trial_Score_p1,Trial_RT_p1,p1_resp_stim.keys,p1_resp_stim.corr,p1_resp_stim.rt,p1_resp_stim.duration,checkpoint.started,imageBreak.started,imageCont.started,key_break.started,imageBreak.stopped,checkpoint.stopped,key_break.keys,key_break.rt,key_break.duration,Instructions2.started,imageInstruct1_2.started,key_resp_Instruct1_2.started,Instructions2.stopped,key_resp_Instruct1_2.keys,key_resp_Instruct1_2.rt,key_resp_Instruct1_2.duration,fixation_2.started,cross_2.started,fixation_2.stopped,stimuli_prez_2.started,audioPrez2.started,imagePrez2.started,imagePrez2.stopped,stimuli_prez_2.stopped,response_2.started,image_resp_p2.started,p2_resp_stim.started,response_2.stopped,Image2,Audio2,response_p2,corchoice_p2,Trial_Score_p2,Trial_RT_p2,p2_resp_stim.keys,p2_resp_stim.corr,p2_resp_stim.rt,p2_resp_stim.duration,cross_2.stopped,end.started,endscreen.started,key_resp_end.started,end.stopped,key_resp_end.keys,key_resp_end.rt,key_resp_end.duration,participant,session,date,expName,psychopyVersion,frameRate,expStart,
tomato,0,0,0,160,,,,,,,,,,,,,,,,,,,,,0.15366670000366867,,0.0665828000055626,0.06703590002143756,0.09369530002004467,0.09406840000883676,,,,,,,,,,,,,,,,,,,,,,,,,,,,,,,,,,,,,,,,,,,,,,,,,,,,,,,,,,,,,,,,,,,,,,,,,,,,,,,,,,,sub-003,001,2025-01-24_13h21.07.220,NESC3137_N400_exp,2023.2.3,59.93953299573946,2025-01-24 13h22.10.655570 -0400,
eye,0,1,1,51,,,,,,,,,,,,,,,,,,,,,0.15366670000366867,,,,0.09422260001883842,0.0944325000164099,,,,,,,,,,,,,,,,,,,,,,,,,,,,,,,,,,,,,,,,,,,,,,,,,,,,,,,,,,,,,,,,,,,,,,,,,,,,,,,,,,,sub-003,001,2025-01-24_13h21.07.220,NESC3137_N400_exp,2023.2.3,59.93953299573946,2025-01-24 13h22.10.655570 -0400,
duck,0,2,2,47,,,,,,,,,,,,,,,,,,,,,0.15366670000366867,,,,0.09460190002573654,0.09477860000333749,,,,,,,,,,,,,,,,,,,,,,,,,,,,,,,,,,,,,,,,,,,,,,,,,,,,,,,,,,,,,,,,,,,,,,,,,,,,,,,,,,,sub-003,001,2025-01-24_13h21.07.220,NESC3137_N400_exp,2023.2.3,59.93953299573946,2025-01-24 13h22.10.655570 -0400,
doorknob,0,3,3,44,,,,,,,,,,,,,,,,,,,,,0.15366670000366867,,,,0.09490750002441928,0.0950660000089556,,,,,,,,,,,,,,,,,,,,,,,,,,,,,,,,,,,,,,,,,,,,,,,,,,,,,,,,,,,,,,,,,,,,,,,,,,,,,,,,,,,sub-003,001,2025-01-24_13h21.07.220,NESC3137_N400_exp,2023.2.3,59.93953299573946,2025-01-24 13h22.10.655570 -0400,
belt,0,4,4,15,,,,,,,,,,,,,,,,,,,,,0.15366670000366867,,,,0.09524340002099052,0.09542160001001321,,,,,,,,,,,,,,,,,,,,,,,,,,,,,,,,,,,,,,,,,,,,,,,,,,,,,,,,,,,,,,,,,,,,,,,,,,,,,,,,,,,sub-003,001,2025-01-24_13h21.07.220,NESC3137_N400_exp,2023.2.3,59.93953299573946,2025-01-24 13h22.10.655570 -0400,
sun,0,5,5,152,,,,,,,,,,,,,,,,,,,,,0.15366670000366867,,,,0.0955493000219576,0.0956894000119064,,,,,,,,,,,,,,,,,,,,,,,,,,,,,,,,,,,,,,,,,,,,,,,,,,,,,,,,,,,,,,,,,,,,,,,,,,,,,,,,,,,sub-003,001,2025-01-24_13h21.07.220,NESC3137_N400_exp,2023.2.3,59.93953299573946,2025-01-24 13h22.10.655570 -0400,
glasses,0,6,6,62,,,,,,,,,,,,,,,,,,,,,0.15366670000366867,,,,0.09584360002190806,0.09614620002685115,,,,,,,,,,,,,,,,,,,,,,,,,,,,,,,,,,,,,,,,,,,,,,,,,,,,,,,,,,,,,,,,,,,,,,,,,,,,,,,,,,,sub-003,001,2025-01-24_13h21.07.220,NESC3137_N400_exp,2023.2.3,59.93953299573946,2025-01-24 13h22.10.655570 -0400,
strawberry,0,7,7,150,,,,,,,,,,,,,,,,,,,,,0.15366670000366867,,,,0.09632730000885203,0.09648790000937879,,,,,,,,,,,,,,,,,,,,,,,,,,,,,,,,,,,,,,,,,,,,,,,,,,,,,,,,,,,,,,,,,,,,,,,,,,,,,,,,,,,sub-003,001,2025-01-24_13h21.07.220,NESC3137_N400_exp,2023.2.3,59.93953299573946,2025-01-24 13h22.10.655570 -0400,
peach,0,8,8,110,,,,,,,,,,,,,,,,,,,,,0.15366670000366867,,,,0.09666730000753887,0.09685660002287477,,,,,,,,,,,,,,,,,,,,,,,,,,,,,,,,,,,,,,,,,,,,,,,,,,,,,,,,,,,,,,,,,,,,,,,,,,,,,,,,,,,sub-003,001,2025-01-24_13h21.07.220,NESC3137_N400_exp,2023.2.3,59.93953299573946,2025-01-24 13h22.10.655570 -0400,
bee,0,9,9,14,,,,,,,,,,,,,,,,,,,,,0.15366670000366867,,,,0.09702310001011938,0.09720680001191795,,,,,,,,,,,,,,,,,,,,,,,,,,,,,,,,,,,,,,,,,,,,,,,,,,,,,,,,,,,,,,,,,,,,,,,,,,,,,,,,,,,sub-003,001,2025-01-24_13h21.07.220,NESC3137_N400_exp,2023.2.3,59.93953299573946,2025-01-24 13h22.10.655570 -0400,
screwdriver,0,10,10,136,,,,,,,,,,,,,,,,,,,,,0.15366670000366867,,,,0.09738410002319142,0.09757540002465248,,,,,,,,,,,,,,,,,,,,,,,,,,,,,,,,,,,,,,,,,,,,,,,,,,,,,,,,,,,,,,,,,,,,,,,,,,,,,,,,,,,sub-003,001,2025-01-24_13h21.07.220,NESC3137_N400_exp,2023.2.3,59.93953299573946,2025-01-24 13h22.10.655570 -0400,
button,0,11,11,22,,,,,,,,,,,,,,,,,,,,,0.15366670000366867,,,,0.0977586000226438,0.09794720000354573,,,,,,,,,,,,,,,,,,,,,,,,,,,,,,,,,,,,,,,,,,,,,,,,,,,,,,,,,,,,,,,,,,,,,,,,,,,,,,,,,,,sub-003,001,2025-01-24_13h21.07.220,NESC3137_N400_exp,2023.2.3,59.93953299573946,2025-01-24 13h22.10.655570 -0400,
cherry,0,12,12,31,,,,,,,,,,,,,,,,,,,,,0.15366670000366867,,,,0.09808380002505146,0.09824660001322627,,,,,,,,,,,,,,,,,,,,,,,,,,,,,,,,,,,,,,,,,,,,,,,,,,,,,,,,,,,,,,,,,,,,,,,,,,,,,,,,,,,sub-003,001,2025-01-24_13h21.07.220,NESC3137_N400_exp,2023.2.3,59.93953299573946,2025-01-24 13h22.10.655570 -0400,
lock,0,13,13,96,,,,,,,,,,,,,,,,,,,,,0.15366670000366867,,,,0.0983940000005532,0.0991467000276316,,,,,,,,,,,,,,,,,,,,,,,,,,,,,,,,,,,,,,,,,,,,,,,,,,,,,,,,,,,,,,,,,,,,,,,,,,,,,,,,,,,sub-003,001,2025-01-24_13h21.07.220,NESC3137_N400_exp,2023.2.3,59.93953299573946,2025-01-24 13h22.10.655570 -0400,
gorilla,0,14,14,65,,,,,,,,,,,,,,,,,,,,,0.15366670000366867,,,,0.09928880000370555,0.09943370000110008,,,,,,,,,,,,,,,,,,,,,,,,,,,,,,,,,,,,,,,,,,,,,,,,,,,,,,,,,,,,,,,,,,,,,,,,,,,,,,,,,,,sub-003,001,2025-01-24_13h21.07.220,NESC3137_N400_exp,2023.2.3,59.93953299573946,2025-01-24 13h22.10.655570 -0400,
whistle,0,15,15,174,,,,,,,,,,,,,,,,,,,,,0.15366670000366867,,,,0.09954450000077486,0.09966650002752431,,,,,,,,,,,,,,,,,,,,,,,,,,,,,,,,,,,,,,,,,,,,,,,,,,,,,,,,,,,,,,,,,,,,,,,,,,,,,,,,,,,sub-003,001,2025-01-24_13h21.07.220,NESC3137_N400_exp,2023.2.3,59.93953299573946,2025-01-24 13h22.10.655570 -0400,
star,0,16,16,148,,,,,,,,,,,,,,,,,,,,,0.15366670000366867,,,,0.09976620000088587,0.09987980002188124,,,,,,,,,,,,,,,,,,,,,,,,,,,,,,,,,,,,,,,,,,,,,,,,,,,,,,,,,,,,,,,,,,,,,,,,,,,,,,,,,,,sub-003,001,2025-01-24_13h21.07.220,NESC3137_N400_exp,2023.2.3,59.93953299573946,2025-01-24 13h22.10.655570 -0400,
well,0,17,17,172,,,,,,,,,,,,,,,,,,,,,0.15366670000366867,,,,0.1000077000062447,0.10015670000575483,,,,,,,,,,,,,,,,,,,,,,,,,,,,,,,,,,,,,,,,,,,,,,,,,,,,,,,,,,,,,,,,,,,,,,,,,,,,,,,,,,,sub-003,001,2025-01-24_13h21.07.220,NESC3137_N400_exp,2023.2.3,59.93953299573946,2025-01-24 13h22.10.655570 -0400,
chain,0,18,18,29,,,,,,,,,,,,,,,,,,,,,0.15366670000366867,,,,0.10026160001871176,0.10037860000738874,,,,,,,,,,,,,,,,,,,,,,,,,,,,,,,,,,,,,,,,,,,,,,,,,,,,,,,,,,,,,,,,,,,,,,,,,,,,,,,,,,,sub-003,001,2025-01-24_13h21.07.220,NESC3137_N400_exp,2023.2.3,59.93953299573946,2025-01-24 13h22.10.655570 -0400,
guitar,0,19,19,67,,,,,,,,,,,,,,,,,,,,,0.15366670000366867,,,,0.10049070001696236,0.10060250002425164,,,,,,,,,,,,,,,,,,,,,,,,,,,,,,,,,,,,,,,,,,,,,,,,,,,,,,,,,,,,,,,,,,,,,,,,,,,,,,,,,,,sub-003,001,2025-01-24_13h21.07.220,NESC3137_N400_exp,2023.2.3,59.93953299573946,2025-01-24 13h22.10.655570 -0400,
crown,0,20,20,39,,,,,,,,,,,,,,,,,,,,,0.15366670000366867,,,,0.1007009000168182,0.10080360001302324,,,,,,,,,,,,,,,,,,,,,,,,,,,,,,,,,,,,,,,,,,,,,,,,,,,,,,,,,,,,,,,,,,,,,,,,,,,,,,,,,,,sub-003,001,2025-01-24_13h21.07.220,NESC3137_N400_exp,2023.2.3,59.93953299573946,2025-01-24 13h22.10.655570 -0400,
cloud,0,21,21,35,,,,,,,,,,,,,,,,,,,,,0.15366670000366867,,,,0.10090150000178255,0.10102790000382811,,,,,,,,,,,,,,,,,,,,,,,,,,,,,,,,,,,,,,,,,,,,,,,,,,,,,,,,,,,,,,,,,,,,,,,,,,,,,,,,,,,sub-003,001,2025-01-24_13h21.07.220,NESC3137_N400_exp,2023.2.3,59.93953299573946,2025-01-24 13h22.10.655570 -0400,
wrench,0,22,22,178,,,,,,,,,,,,,,,,,,,,,0.15366670000366867,,,,0.10115460000815801,0.10130720000597648,,,,,,,,,,,,,,,,,,,,,,,,,,,,,,,,,,,,,,,,,,,,,,,,,,,,,,,,,,,,,,,,,,,,,,,,,,,,,,,,,,,sub-003,001,2025-01-24_13h21.07.220,NESC3137_N400_exp,2023.2.3,59.93953299573946,2025-01-24 13h22.10.655570 -0400,
owl,0,23,23,107,,,,,,,,,,,,,,,,,,,,,0.15366670000366867,,,,0.10153810001793317,0.10174650000408292,,,,,,,,,,,,,,,,,,,,,,,,,,,,,,,,,,,,,,,,,,,,,,,,,,,,,,,,,,,,,,,,,,,,,,,,,,,,,,,,,,,sub-003,001,2025-01-24_13h21.07.220,NESC3137_N400_exp,2023.2.3,59.93953299573946,2025-01-24 13h22.10.655570 -0400,
scissors,0,24,24,135,,,,,,,,,,,,,,,,,,,,,0.15366670000366867,,,,0.10192400001687929,0.10207520000403747,,,,,,,,,,,,,,,,,,,,,,,,,,,,,,,,,,,,,,,,,,,,,,,,,,,,,,,,,,,,,,,,,,,,,,,,,,,,,,,,,,,sub-003,001,2025-01-24_13h21.07.220,NESC3137_N400_exp,2023.2.3,59.93953299573946,2025-01-24 13h22.10.655570 -0400,
paintbrush,0,25,25,108,,,,,,,,,,,,,,,,,,,,,0.15366670000366867,,,,0.10220120000303723,0.10236590000567958,,,,,,,,,,,,,,,,,,,,,,,,,,,,,,,,,,,,,,,,,,,,,,,,,,,,,,,,,,,,,,,,,,,,,,,,,,,,,,,,,,,sub-003,001,2025-01-24_13h21.07.220,NESC3137_N400_exp,2023.2.3,59.93953299573946,2025-01-24 13h22.10.655570 -0400,
hammer,0,26,26,70,,,,,,,,,,,,,,,,,,,,,0.15366670000366867,,,,0.1024835999996867,0.10262050002347678,,,,,,,,,,,,,,,,,,,,,,,,,,,,,,,,,,,,,,,,,,,,,,,,,,,,,,,,,,,,,,,,,,,,,,,,,,,,,,,,,,,sub-003,001,2025-01-24_13h21.07.220,NESC3137_N400_exp,2023.2.3,59.93953299573946,2025-01-24 13h22.10.655570 -0400,
kite,0,27,27,83,,,,,,,,,,,,,,,,,,,,,0.15366670000366867,,,,0.10272850000183098,0.10286270000506192,,,,,,,,,,,,,,,,,,,,,,,,,,,,,,,,,,,,,,,,,,,,,,,,,,,,,,,,,,,,,,,,,,,,,,,,,,,,,,,,,,,sub-003,001,2025-01-24_13h21.07.220,NESC3137_N400_exp,2023.2.3,59.93953299573946,2025-01-24 13h22.10.655570 -0400,
wagon,0,28,28,170,,,,,,,,,,,,,,,,,,,,,0.15366670000366867,,,,0.10302840001531877,0.10317610000493005,,,,,,,,,,,,,,,,,,,,,,,,,,,,,,,,,,,,,,,,,,,,,,,,,,,,,,,,,,,,,,,,,,,,,,,,,,,,,,,,,,,sub-003,001,2025-01-24_13h21.07.220,NESC3137_N400_exp,2023.2.3,59.93953299573946,2025-01-24 13h22.10.655570 -0400,
goat,0,29,29,64,,,,,,,,,,,,,,,,,,,,,0.15366670000366867,,,,0.10330090002389625,0.10344470001291484,,,,,,,,,,,,,,,,,,,,,,,,,,,,,,,,,,,,,,,,,,,,,,,,,,,,,,,,,,,,,,,,,,,,,,,,,,,,,,,,,,,sub-003,001,2025-01-24_13h21.07.220,NESC3137_N400_exp,2023.2.3,59.93953299573946,2025-01-24 13h22.10.655570 -0400,
turtle,0,30,30,165,,,,,,,,,,,,,,,,,,,,,0.15366670000366867,,,,0.10359380001318641,0.1037371999991592,,,,,,,,,,,,,,,,,,,,,,,,,,,,,,,,,,,,,,,,,,,,,,,,,,,,,,,,,,,,,,,,,,,,,,,,,,,,,,,,,,,sub-003,001,2025-01-24_13h21.07.220,NESC3137_N400_exp,2023.2.3,59.93953299573946,2025-01-24 13h22.10.655570 -0400,
deer,0,31,31,40,,,,,,,,,,,,,,,,,,,,,0.15366670000366867,,,,0.10394100000848994,0.1040913000178989,,,,,,,,,,,,,,,,,,,,,,,,,,,,,,,,,,,,,,,,,,,,,,,,,,,,,,,,,,,,,,,,,,,,,,,,,,,,,,,,,,,sub-003,001,2025-01-24_13h21.07.220,NESC3137_N400_exp,2023.2.3,59.93953299573946,2025-01-24 13h22.10.655570 -0400,
pear,0,32,32,114,,,,,,,,,,,,,,,,,,,,,0.15366670000366867,,,,0.1042648000002373,0.10445690000778995,,,,,,,,,,,,,,,,,,,,,,,,,,,,,,,,,,,,,,,,,,,,,,,,,,,,,,,,,,,,,,,,,,,,,,,,,,,,,,,,,,,sub-003,001,2025-01-24_13h21.07.220,NESC3137_N400_exp,2023.2.3,59.93953299573946,2025-01-24 13h22.10.655570 -0400,
television,0,33,33,156,,,,,,,,,,,,,,,,,,,,,0.15366670000366867,,,,0.10458210000069812,0.10470760002499446,,,,,,,,,,,,,,,,,,,,,,,,,,,,,,,,,,,,,,,,,,,,,,,,,,,,,,,,,,,,,,,,,,,,,,,,,,,,,,,,,,,sub-003,001,2025-01-24_13h21.07.220,NESC3137_N400_exp,2023.2.3,59.93953299573946,2025-01-24 13h22.10.655570 -0400,
wineglass,0,34,34,177,,,,,,,,,,,,,,,,,,,,,0.15366670000366867,,,,0.10480830000597052,0.10496630001580343,,,,,,,,,,,,,,,,,,,,,,,,,,,,,,,,,,,,,,,,,,,,,,,,,,,,,,,,,,,,,,,,,,,,,,,,,,,,,,,,,,,sub-003,001,2025-01-24_13h21.07.220,NESC3137_N400_exp,2023.2.3,59.93953299573946,2025-01-24 13h22.10.655570 -0400,
clown,0,35,35,36,,,,,,,,,,,,,,,,,,,,,0.15366670000366867,,,,0.10506650002207607,0.1052215000090655,,,,,,,,,,,,,,,,,,,,,,,,,,,,,,,,,,,,,,,,,,,,,,,,,,,,,,,,,,,,,,,,,,,,,,,,,,,,,,,,,,,sub-003,001,2025-01-24_13h21.07.220,NESC3137_N400_exp,2023.2.3,59.93953299573946,2025-01-24 13h22.10.655570 -0400,
chair,0,36,36,30,,,,,,,,,,,,,,,,,,,,,0.15366670000366867,,,,0.10533080002642237,0.10546560000511818,,,,,,,,,,,,,,,,,,,,,,,,,,,,,,,,,,,,,,,,,,,,,,,,,,,,,,,,,,,,,,,,,,,,,,,,,,,,,,,,,,,sub-003,001,2025-01-24_13h21.07.220,NESC3137_N400_exp,2023.2.3,59.93953299573946,2025-01-24 13h22.10.655570 -0400,
suitcase,0,37,37,151,,,,,,,,,,,,,,,,,,,,,0.15366670000366867,,,,0.10556300001917407,0.10570300000836141,,,,,,,,,,,,,,,,,,,,,,,,,,,,,,,,,,,,,,,,,,,,,,,,,,,,,,,,,,,,,,,,,,,,,,,,,,,,,,,,,,,sub-003,001,2025-01-24_13h21.07.220,NESC3137_N400_exp,2023.2.3,59.93953299573946,2025-01-24 13h22.10.655570 -0400,
orange,0,38,38,105,,,,,,,,,,,,,,,,,,,,,0.15366670000366867,,,,0.10581860001548193,0.10596169999917038,,,,,,,,,,,,,,,,,,,,,,,,,,,,,,,,,,,,,,,,,,,,,,,,,,,,,,,,,,,,,,,,,,,,,,,,,,,,,,,,,,,sub-003,001,2025-01-24_13h21.07.220,NESC3137_N400_exp,2023.2.3,59.93953299573946,2025-01-24 13h22.10.655570 -0400,
jacket,0,39,39,79,,,,,,,,,,,,,,,,,,,,,0.15366670000366867,,,,0.10609790001763031,0.10625970002729446,,,,,,,,,,,,,,,,,,,,,,,,,,,,,,,,,,,,,,,,,,,,,,,,,,,,,,,,,,,,,,,,,,,,,,,,,,,,,,,,,,,sub-003,001,2025-01-24_13h21.07.220,NESC3137_N400_exp,2023.2.3,59.93953299573946,2025-01-24 13h22.10.655570 -0400,
mountain,0,40,40,100,,,,,,,,,,,,,,,,,,,,,0.15366670000366867,,,,0.10641670000040904,0.10685770001146011,,,,,,,,,,,,,,,,,,,,,,,,,,,,,,,,,,,,,,,,,,,,,,,,,,,,,,,,,,,,,,,,,,,,,,,,,,,,,,,,,,,sub-003,001,2025-01-24_13h21.07.220,NESC3137_N400_exp,2023.2.3,59.93953299573946,2025-01-24 13h22.10.655570 -0400,
spider,0,41,41,146,,,,,,,,,,,,,,,,,,,,,0.15366670000366867,,,,0.10698320000665262,0.10714440001174808,,,,,,,,,,,,,,,,,,,,,,,,,,,,,,,,,,,,,,,,,,,,,,,,,,,,,,,,,,,,,,,,,,,,,,,,,,,,,,,,,,,sub-003,001,2025-01-24_13h21.07.220,NESC3137_N400_exp,2023.2.3,59.93953299573946,2025-01-24 13h22.10.655570 -0400,
hat,0,42,42,74,,,,,,,,,,,,,,,,,,,,,0.15366670000366867,,,,0.10736320001888089,0.10750540002482012,,,,,,,,,,,,,,,,,,,,,,,,,,,,,,,,,,,,,,,,,,,,,,,,,,,,,,,,,,,,,,,,,,,,,,,,,,,,,,,,,,,sub-003,001,2025-01-24_13h21.07.220,NESC3137_N400_exp,2023.2.3,59.93953299573946,2025-01-24 13h22.10.655570 -0400,
cake,0,43,43,23,,,,,,,,,,,,,,,,,,,,,0.15366670000366867,,,,0.1076125000254251,0.1077534000214655,,,,,,,,,,,,,,,,,,,,,,,,,,,,,,,,,,,,,,,,,,,,,,,,,,,,,,,,,,,,,,,,,,,,,,,,,,,,,,,,,,,sub-003,001,2025-01-24_13h21.07.220,NESC3137_N400_exp,2023.2.3,59.93953299573946,2025-01-24 13h22.10.655570 -0400,
bow,0,44,44,19,,,,,,,,,,,,,,,,,,,,,0.15366670000366867,,,,0.10787760000675917,0.10802200000034645,,,,,,,,,,,,,,,,,,,,,,,,,,,,,,,,,,,,,,,,,,,,,,,,,,,,,,,,,,,,,,,,,,,,,,,,,,,,,,,,,,,sub-003,001,2025-01-24_13h21.07.220,NESC3137_N400_exp,2023.2.3,59.93953299573946,2025-01-24 13h22.10.655570 -0400,
toothbrush,0,45,45,161,,,,,,,,,,,,,,,,,,,,,0.15366670000366867,,,,0.10814850000315346,0.10828720001154579,,,,,,,,,,,,,,,,,,,,,,,,,,,,,,,,,,,,,,,,,,,,,,,,,,,,,,,,,,,,,,,,,,,,,,,,,,,,,,,,,,,sub-003,001,2025-01-24_13h21.07.220,NESC3137_N400_exp,2023.2.3,59.93953299573946,2025-01-24 13h22.10.655570 -0400,
giraffe,0,46,46,61,,,,,,,,,,,,,,,,,,,,,0.15366670000366867,,,,0.10839830001350492,0.10852520001935773,,,,,,,,,,,,,,,,,,,,,,,,,,,,,,,,,,,,,,,,,,,,,,,,,,,,,,,,,,,,,,,,,,,,,,,,,,,,,,,,,,,sub-003,001,2025-01-24_13h21.07.220,NESC3137_N400_exp,2023.2.3,59.93953299573946,2025-01-24 13h22.10.655570 -0400,
gloves,0,47,47,63,,,,,,,,,,,,,,,,,,,,,0.15366670000366867,,,,0.10867560000042431,0.10881210002116859,,,,,,,,,,,,,,,,,,,,,,,,,,,,,,,,,,,,,,,,,,,,,,,,,,,,,,,,,,,,,,,,,,,,,,,,,,,,,,,,,,,sub-003,001,2025-01-24_13h21.07.220,NESC3137_N400_exp,2023.2.3,59.93953299573946,2025-01-24 13h22.10.655570 -0400,
desk,0,48,48,41,,,,,,,,,,,,,,,,,,,,,0.15366670000366867,,,,0.10895890000392683,0.10909979999996722,,,,,,,,,,,,,,,,,,,,,,,,,,,,,,,,,,,,,,,,,,,,,,,,,,,,,,,,,,,,,,,,,,,,,,,,,,,,,,,,,,,sub-003,001,2025-01-24_13h21.07.220,NESC3137_N400_exp,2023.2.3,59.93953299573946,2025-01-24 13h22.10.655570 -0400,
pig,0,49,49,118,,,,,,,,,,,,,,,,,,,,,0.15366670000366867,,,,0.10921980001148768,0.10935070001869462,,,,,,,,,,,,,,,,,,,,,,,,,,,,,,,,,,,,,,,,,,,,,,,,,,,,,,,,,,,,,,,,,,,,,,,,,,,,,,,,,,,sub-003,001,2025-01-24_13h21.07.220,NESC3137_N400_exp,2023.2.3,59.93953299573946,2025-01-24 13h22.10.655570 -0400,
knife,0,50,50,84,,,,,,,,,,,,,,,,,,,,,0.15366670000366867,,,,0.10949040000559762,0.10962220001965761,,,,,,,,,,,,,,,,,,,,,,,,,,,,,,,,,,,,,,,,,,,,,,,,,,,,,,,,,,,,,,,,,,,,,,,,,,,,,,,,,,,sub-003,001,2025-01-24_13h21.07.220,NESC3137_N400_exp,2023.2.3,59.93953299573946,2025-01-24 13h22.10.655570 -0400,
rollingpin,0,51,51,130,,,,,,,,,,,,,,,,,,,,,0.15366670000366867,,,,0.10976070002652705,0.1099213000270538,,,,,,,,,,,,,,,,,,,,,,,,,,,,,,,,,,,,,,,,,,,,,,,,,,,,,,,,,,,,,,,,,,,,,,,,,,,,,,,,,,,sub-003,001,2025-01-24_13h21.07.220,NESC3137_N400_exp,2023.2.3,59.93953299573946,2025-01-24 13h22.10.655570 -0400,
airplane,0,52,52,1,,,,,,,,,,,,,,,,,,,,,0.15366670000366867,,,,0.11006280002766289,0.11020760002429597,,,,,,,,,,,,,,,,,,,,,,,,,,,,,,,,,,,,,,,,,,,,,,,,,,,,,,,,,,,,,,,,,,,,,,,,,,,,,,,,,,,sub-003,001,2025-01-24_13h21.07.220,NESC3137_N400_exp,2023.2.3,59.93953299573946,2025-01-24 13h22.10.655570 -0400,
axe,0,53,53,6,,,,,,,,,,,,,,,,,,,,,0.15366670000366867,,,,0.1103251000167802,0.11047100002178922,,,,,,,,,,,,,,,,,,,,,,,,,,,,,,,,,,,,,,,,,,,,,,,,,,,,,,,,,,,,,,,,,,,,,,,,,,,,,,,,,,,sub-003,001,2025-01-24_13h21.07.220,NESC3137_N400_exp,2023.2.3,59.93953299573946,2025-01-24 13h22.10.655570 -0400,
corn,0,54,54,37,,,,,,,,,,,,,,,,,,,,,0.15366670000366867,,,,0.11060940002789721,0.11082460000761785,,,,,,,,,,,,,,,,,,,,,,,,,,,,,,,,,,,,,,,,,,,,,,,,,,,,,,,,,,,,,,,,,,,,,,,,,,,,,,,,,,,sub-003,001,2025-01-24_13h21.07.220,NESC3137_N400_exp,2023.2.3,59.93953299573946,2025-01-24 13h22.10.655570 -0400,
ostrich,0,55,55,106,,,,,,,,,,,,,,,,,,,,,0.15366670000366867,,,,0.11093610001262277,0.11109300001407973,,,,,,,,,,,,,,,,,,,,,,,,,,,,,,,,,,,,,,,,,,,,,,,,,,,,,,,,,,,,,,,,,,,,,,,,,,,,,,,,,,,sub-003,001,2025-01-24_13h21.07.220,NESC3137_N400_exp,2023.2.3,59.93953299573946,2025-01-24 13h22.10.655570 -0400,
thimble,0,56,56,158,,,,,,,,,,,,,,,,,,,,,0.15366670000366867,,,,0.11120720001053996,0.11132830000133254,,,,,,,,,,,,,,,,,,,,,,,,,,,,,,,,,,,,,,,,,,,,,,,,,,,,,,,,,,,,,,,,,,,,,,,,,,,,,,,,,,,sub-003,001,2025-01-24_13h21.07.220,NESC3137_N400_exp,2023.2.3,59.93953299573946,2025-01-24 13h22.10.655570 -0400,
stove,0,57,57,149,,,,,,,,,,,,,,,,,,,,,0.15366670000366867,,,,0.11142970001674257,0.11155250002047978,,,,,,,,,,,,,,,,,,,,,,,,,,,,,,,,,,,,,,,,,,,,,,,,,,,,,,,,,,,,,,,,,,,,,,,,,,,,,,,,,,,sub-003,001,2025-01-24_13h21.07.220,NESC3137_N400_exp,2023.2.3,59.93953299573946,2025-01-24 13h22.10.655570 -0400,
key,0,58,58,82,,,,,,,,,,,,,,,,,,,,,0.15366670000366867,,,,0.11168020000332035,0.11179800002719276,,,,,,,,,,,,,,,,,,,,,,,,,,,,,,,,,,,,,,,,,,,,,,,,,,,,,,,,,,,,,,,,,,,,,,,,,,,,,,,,,,,sub-003,001,2025-01-24_13h21.07.220,NESC3137_N400_exp,2023.2.3,59.93953299573946,2025-01-24 13h22.10.655570 -0400,
eagle,0,59,59,48,,,,,,,,,,,,,,,,,,,,,0.15366670000366867,,,,0.1119073000154458,0.11201380001148209,,,,,,,,,,,,,,,,,,,,,,,,,,,,,,,,,,,,,,,,,,,,,,,,,,,,,,,,,,,,,,,,,,,,,,,,,,,,,,,,,,,sub-003,001,2025-01-24_13h21.07.220,NESC3137_N400_exp,2023.2.3,59.93953299573946,2025-01-24 13h22.10.655570 -0400,
sled,0,60,60,143,,,,,,,,,,,,,,,,,,,,,0.15366670000366867,,,,0.11213940000743605,0.11225640002521686,,,,,,,,,,,,,,,,,,,,,,,,,,,,,,,,,,,,,,,,,,,,,,,,,,,,,,,,,,,,,,,,,,,,,,,,,,,,,,,,,,,sub-003,001,2025-01-24_13h21.07.220,NESC3137_N400_exp,2023.2.3,59.93953299573946,2025-01-24 13h22.10.655570 -0400,
plug,0,61,61,122,,,,,,,,,,,,,,,,,,,,,0.15366670000366867,,,,0.11236130000906996,0.11249390000011772,,,,,,,,,,,,,,,,,,,,,,,,,,,,,,,,,,,,,,,,,,,,,,,,,,,,,,,,,,,,,,,,,,,,,,,,,,,,,,,,,,,sub-003,001,2025-01-24_13h21.07.220,NESC3137_N400_exp,2023.2.3,59.93953299573946,2025-01-24 13h22.10.655570 -0400,
table,0,62,62,155,,,,,,,,,,,,,,,,,,,,,0.15366670000366867,,,,0.11268670001300052,0.11281830002553761,,,,,,,,,,,,,,,,,,,,,,,,,,,,,,,,,,,,,,,,,,,,,,,,,,,,,,,,,,,,,,,,,,,,,,,,,,,,,,,,,,,sub-003,001,2025-01-24_13h21.07.220,NESC3137_N400_exp,2023.2.3,59.93953299573946,2025-01-24 13h22.10.655570 -0400,
lion,0,63,63,93,,,,,,,,,,,,,,,,,,,,,0.15366670000366867,,,,0.11294640001142398,0.11307880000094883,,,,,,,,,,,,,,,,,,,,,,,,,,,,,,,,,,,,,,,,,,,,,,,,,,,,,,,,,,,,,,,,,,,,,,,,,,,,,,,,,,,sub-003,001,2025-01-24_13h21.07.220,NESC3137_N400_exp,2023.2.3,59.93953299573946,2025-01-24 13h22.10.655570 -0400,
tree,0,64,64,163,,,,,,,,,,,,,,,,,,,,,0.15366670000366867,,,,0.11319290002575144,0.1133280000067316,,,,,,,,,,,,,,,,,,,,,,,,,,,,,,,,,,,,,,,,,,,,,,,,,,,,,,,,,,,,,,,,,,,,,,,,,,,,,,,,,,,sub-003,001,2025-01-24_13h21.07.220,NESC3137_N400_exp,2023.2.3,59.93953299573946,2025-01-24 13h22.10.655570 -0400,
lettuce,0,65,65,90,,,,,,,,,,,,,,,,,,,,,0.15366670000366867,,,,0.11351970001123846,0.11369630001718178,,,,,,,,,,,,,,,,,,,,,,,,,,,,,,,,,,,,,,,,,,,,,,,,,,,,,,,,,,,,,,,,,,,,,,,,,,,,,,,,,,,sub-003,001,2025-01-24_13h21.07.220,NESC3137_N400_exp,2023.2.3,59.93953299573946,2025-01-24 13h22.10.655570 -0400,
cannon,0,66,66,26,,,,,,,,,,,,,,,,,,,,,0.15366670000366867,,,,0.1138177000102587,0.11397440001019277,,,,,,,,,,,,,,,,,,,,,,,,,,,,,,,,,,,,,,,,,,,,,,,,,,,,,,,,,,,,,,,,,,,,,,,,,,,,,,,,,,,sub-003,001,2025-01-24_13h21.07.220,NESC3137_N400_exp,2023.2.3,59.93953299573946,2025-01-24 13h22.10.655570 -0400,
accordion,0,67,67,0,,,,,,,,,,,,,,,,,,,,,0.15366670000366867,,,,0.11407940002391115,0.1142128000210505,,,,,,,,,,,,,,,,,,,,,,,,,,,,,,,,,,,,,,,,,,,,,,,,,,,,,,,,,,,,,,,,,,,,,,,,,,,,,,,,,,,sub-003,001,2025-01-24_13h21.07.220,NESC3137_N400_exp,2023.2.3,59.93953299573946,2025-01-24 13h22.10.655570 -0400,
hanger,0,68,68,72,,,,,,,,,,,,,,,,,,,,,0.15366670000366867,,,,0.11431140001513995,0.11443190000136383,,,,,,,,,,,,,,,,,,,,,,,,,,,,,,,,,,,,,,,,,,,,,,,,,,,,,,,,,,,,,,,,,,,,,,,,,,,,,,,,,,,sub-003,001,2025-01-24_13h21.07.220,NESC3137_N400_exp,2023.2.3,59.93953299573946,2025-01-24 13h22.10.655570 -0400,
candle,0,69,69,25,,,,,,,,,,,,,,,,,,,,,0.15366670000366867,,,,0.11452940001618117,0.11468360002618283,,,,,,,,,,,,,,,,,,,,,,,,,,,,,,,,,,,,,,,,,,,,,,,,,,,,,,,,,,,,,,,,,,,,,,,,,,,,,,,,,,,sub-003,001,2025-01-24_13h21.07.220,NESC3137_N400_exp,2023.2.3,59.93953299573946,2025-01-24 13h22.10.655570 -0400,
skirt,0,70,70,141,,,,,,,,,,,,,,,,,,,,,0.15366670000366867,,,,0.11487820002366789,0.11505660001421347,,,,,,,,,,,,,,,,,,,,,,,,,,,,,,,,,,,,,,,,,,,,,,,,,,,,,,,,,,,,,,,,,,,,,,,,,,,,,,,,,,,sub-003,001,2025-01-24_13h21.07.220,NESC3137_N400_exp,2023.2.3,59.93953299573946,2025-01-24 13h22.10.655570 -0400,
squirrel,0,71,71,147,,,,,,,,,,,,,,,,,,,,,0.15366670000366867,,,,0.11522560002049431,0.11538100001052953,,,,,,,,,,,,,,,,,,,,,,,,,,,,,,,,,,,,,,,,,,,,,,,,,,,,,,,,,,,,,,,,,,,,,,,,,,,,,,,,,,,sub-003,001,2025-01-24_13h21.07.220,NESC3137_N400_exp,2023.2.3,59.93953299573946,2025-01-24 13h22.10.655570 -0400,
lamp,0,72,72,86,,,,,,,,,,,,,,,,,,,,,0.15366670000366867,,,,0.11558080001850612,0.11573450002470054,,,,,,,,,,,,,,,,,,,,,,,,,,,,,,,,,,,,,,,,,,,,,,,,,,,,,,,,,,,,,,,,,,,,,,,,,,,,,,,,,,,sub-003,001,2025-01-24_13h21.07.220,NESC3137_N400_exp,2023.2.3,59.93953299573946,2025-01-24 13h22.10.655570 -0400,
alligator,0,73,73,2,,,,,,,,,,,,,,,,,,,,,0.15366670000366867,,,,0.11584920002496801,0.11595810001017526,,,,,,,,,,,,,,,,,,,,,,,,,,,,,,,,,,,,,,,,,,,,,,,,,,,,,,,,,,,,,,,,,,,,,,,,,,,,,,,,,,,sub-003,001,2025-01-24_13h21.07.220,NESC3137_N400_exp,2023.2.3,59.93953299573946,2025-01-24 13h22.10.655570 -0400,
vest,0,74,74,168,,,,,,,,,,,,,,,,,,,,,0.15366670000366867,,,,0.1160556000249926,0.11618140002246946,,,,,,,,,,,,,,,,,,,,,,,,,,,,,,,,,,,,,,,,,,,,,,,,,,,,,,,,,,,,,,,,,,,,,,,,,,,,,,,,,,,sub-003,001,2025-01-24_13h21.07.220,NESC3137_N400_exp,2023.2.3,59.93953299573946,2025-01-24 13h22.10.655570 -0400,
skunk,0,75,75,142,,,,,,,,,,,,,,,,,,,,,0.15366670000366867,,,,0.11627610001596622,0.11639070001547225,,,,,,,,,,,,,,,,,,,,,,,,,,,,,,,,,,,,,,,,,,,,,,,,,,,,,,,,,,,,,,,,,,,,,,,,,,,,,,,,,,,sub-003,001,2025-01-24_13h21.07.220,NESC3137_N400_exp,2023.2.3,59.93953299573946,2025-01-24 13h22.10.655570 -0400,
pineapple,0,76,76,119,,,,,,,,,,,,,,,,,,,,,0.15366670000366867,,,,0.11651190000702627,0.1166222000028938,,,,,,,,,,,,,,,,,,,,,,,,,,,,,,,,,,,,,,,,,,,,,,,,,,,,,,,,,,,,,,,,,,,,,,,,,,,,,,,,,,,sub-003,001,2025-01-24_13h21.07.220,NESC3137_N400_exp,2023.2.3,59.93953299573946,2025-01-24 13h22.10.655570 -0400,
bicycle,0,77,77,16,,,,,,,,,,,,,,,,,,,,,0.15366670000366867,,,,0.1167252000013832,0.11687730002449825,,,,,,,,,,,,,,,,,,,,,,,,,,,,,,,,,,,,,,,,,,,,,,,,,,,,,,,,,,,,,,,,,,,,,,,,,,,,,,,,,,,sub-003,001,2025-01-24_13h21.07.220,NESC3137_N400_exp,2023.2.3,59.93953299573946,2025-01-24 13h22.10.655570 -0400,
vase,0,78,78,167,,,,,,,,,,,,,,,,,,,,,0.15366670000366867,,,,0.11697930001537316,0.11708390002604574,,,,,,,,,,,,,,,,,,,,,,,,,,,,,,,,,,,,,,,,,,,,,,,,,,,,,,,,,,,,,,,,,,,,,,,,,,,,,,,,,,,sub-003,001,2025-01-24_13h21.07.220,NESC3137_N400_exp,2023.2.3,59.93953299573946,2025-01-24 13h22.10.655570 -0400,
umbrella,0,79,79,166,,,,,,,,,,,,,,,,,,,,,0.15366670000366867,,,,0.1171852000115905,0.11735240000416525,,,,,,,,,,,,,,,,,,,,,,,,,,,,,,,,,,,,,,,,,,,,,,,,,,,,,,,,,,,,,,,,,,,,,,,,,,,,,,,,,,,sub-003,001,2025-01-24_13h21.07.220,NESC3137_N400_exp,2023.2.3,59.93953299573946,2025-01-24 13h22.10.655570 -0400,
snail,0,80,80,144,,,,,,,,,,,,,,,,,,,,,0.15366670000366867,,,,0.11749210002017207,0.1176759000227321,,,,,,,,,,,,,,,,,,,,,,,,,,,,,,,,,,,,,,,,,,,,,,,,,,,,,,,,,,,,,,,,,,,,,,,,,,,,,,,,,,,sub-003,001,2025-01-24_13h21.07.220,NESC3137_N400_exp,2023.2.3,59.93953299573946,2025-01-24 13h22.10.655570 -0400,
ruler,0,81,81,132,,,,,,,,,,,,,,,,,,,,,0.15366670000366867,,,,0.1178121000120882,0.11799100000644103,,,,,,,,,,,,,,,,,,,,,,,,,,,,,,,,,,,,,,,,,,,,,,,,,,,,,,,,,,,,,,,,,,,,,,,,,,,,,,,,,,,sub-003,001,2025-01-24_13h21.07.220,NESC3137_N400_exp,2023.2.3,59.93953299573946,2025-01-24 13h22.10.655570 -0400,
leaf,0,82,82,87,,,,,,,,,,,,,,,,,,,,,0.15366670000366867,,,,0.11810440002591349,0.11823580000782385,,,,,,,,,,,,,,,,,,,,,,,,,,,,,,,,,,,,,,,,,,,,,,,,,,,,,,,,,,,,,,,,,,,,,,,,,,,,,,,,,,,sub-003,001,2025-01-24_13h21.07.220,NESC3137_N400_exp,2023.2.3,59.93953299573946,2025-01-24 13h22.10.655570 -0400,
peanut,0,83,83,113,,,,,,,,,,,,,,,,,,,,,0.15366670000366867,,,,0.11837580002611503,0.11851420000311919,,,,,,,,,,,,,,,,,,,,,,,,,,,,,,,,,,,,,,,,,,,,,,,,,,,,,,,,,,,,,,,,,,,,,,,,,,,,,,,,,,,sub-003,001,2025-01-24_13h21.07.220,NESC3137_N400_exp,2023.2.3,59.93953299573946,2025-01-24 13h22.10.655570 -0400,
elephant,0,84,84,49,,,,,,,,,,,,,,,,,,,,,0.15366670000366867,,,,0.11863070001709275,0.11874650002573617,,,,,,,,,,,,,,,,,,,,,,,,,,,,,,,,,,,,,,,,,,,,,,,,,,,,,,,,,,,,,,,,,,,,,,,,,,,,,,,,,,,sub-003,001,2025-01-24_13h21.07.220,NESC3137_N400_exp,2023.2.3,59.93953299573946,2025-01-24 13h22.10.655570 -0400,
cow,0,85,85,38,,,,,,,,,,,,,,,,,,,,,0.15366670000366867,,,,0.11884600002667867,0.11897180002415553,,,,,,,,,,,,,,,,,,,,,,,,,,,,,,,,,,,,,,,,,,,,,,,,,,,,,,,,,,,,,,,,,,,,,,,,,,,,,,,,,,,sub-003,001,2025-01-24_13h21.07.220,NESC3137_N400_exp,2023.2.3,59.93953299573946,2025-01-24 13h22.10.655570 -0400,
fryingpan,0,86,86,59,,,,,,,,,,,,,,,,,,,,,0.15366670000366867,,,,0.11906870000530034,0.1191672999993898,,,,,,,,,,,,,,,,,,,,,,,,,,,,,,,,,,,,,,,,,,,,,,,,,,,,,,,,,,,,,,,,,,,,,,,,,,,,,,,,,,,sub-003,001,2025-01-24_13h21.07.220,NESC3137_N400_exp,2023.2.3,59.93953299573946,2025-01-24 13h22.10.655570 -0400,
helicopter,0,87,87,76,,,,,,,,,,,,,,,,,,,,,0.15366670000366867,,,,0.11926770000718534,0.11936690000584349,,,,,,,,,,,,,,,,,,,,,,,,,,,,,,,,,,,,,,,,,,,,,,,,,,,,,,,,,,,,,,,,,,,,,,,,,,,,,,,,,,,sub-003,001,2025-01-24_13h21.07.220,NESC3137_N400_exp,2023.2.3,59.93953299573946,2025-01-24 13h22.10.655570 -0400,
arm,0,88,88,5,,,,,,,,,,,,,,,,,,,,,0.15366670000366867,,,,0.11946440002066083,0.11956570000620559,,,,,,,,,,,,,,,,,,,,,,,,,,,,,,,,,,,,,,,,,,,,,,,,,,,,,,,,,,,,,,,,,,,,,,,,,,,,,,,,,,,sub-003,001,2025-01-24_13h21.07.220,NESC3137_N400_exp,2023.2.3,59.93953299573946,2025-01-24 13h22.10.655570 -0400,
house,0,89,89,78,,,,,,,,,,,,,,,,,,,,,0.15366670000366867,,,,0.11968020000495017,0.11985070002265275,,,,,,,,,,,,,,,,,,,,,,,,,,,,,,,,,,,,,,,,,,,,,,,,,,,,,,,,,,,,,,,,,,,,,,,,,,,,,,,,,,,sub-003,001,2025-01-24_13h21.07.220,NESC3137_N400_exp,2023.2.3,59.93953299573946,2025-01-24 13h22.10.655570 -0400,
tennisracket,0,90,90,157,,,,,,,,,,,,,,,,,,,,,0.15366670000366867,,,,0.11997190001420677,0.12011850002454594,,,,,,,,,,,,,,,,,,,,,,,,,,,,,,,,,,,,,,,,,,,,,,,,,,,,,,,,,,,,,,,,,,,,,,,,,,,,,,,,,,,sub-003,001,2025-01-24_13h21.07.220,NESC3137_N400_exp,2023.2.3,59.93953299573946,2025-01-24 13h22.10.655570 -0400,
shoe,0,91,91,140,,,,,,,,,,,,,,,,,,,,,0.15366670000366867,,,,0.12031350002507679,0.12046830001054332,,,,,,,,,,,,,,,,,,,,,,,,,,,,,,,,,,,,,,,,,,,,,,,,,,,,,,,,,,,,,,,,,,,,,,,,,,,,,,,,,,,sub-003,001,2025-01-24_13h21.07.220,NESC3137_N400_exp,2023.2.3,59.93953299573946,2025-01-24 13h22.10.655570 -0400,
boot,0,92,92,18,,,,,,,,,,,,,,,,,,,,,0.15366670000366867,,,,0.12063220000709407,0.12077240002690814,,,,,,,,,,,,,,,,,,,,,,,,,,,,,,,,,,,,,,,,,,,,,,,,,,,,,,,,,,,,,,,,,,,,,,,,,,,,,,,,,,,sub-003,001,2025-01-24_13h21.07.220,NESC3137_N400_exp,2023.2.3,59.93953299573946,2025-01-24 13h22.10.655570 -0400,
heart,0,93,93,75,,,,,,,,,,,,,,,,,,,,,0.15366670000366867,,,,0.1209380000072997,0.12108920002356172,,,,,,,,,,,,,,,,,,,,,,,,,,,,,,,,,,,,,,,,,,,,,,,,,,,,,,,,,,,,,,,,,,,,,,,,,,,,,,,,,,,sub-003,001,2025-01-24_13h21.07.220,NESC3137_N400_exp,2023.2.3,59.93953299573946,2025-01-24 13h22.10.655570 -0400,
carrot,0,94,94,27,,,,,,,,,,,,,,,,,,,,,0.15366670000366867,,,,0.12123800002154894,0.12138260001665913,,,,,,,,,,,,,,,,,,,,,,,,,,,,,,,,,,,,,,,,,,,,,,,,,,,,,,,,,,,,,,,,,,,,,,,,,,,,,,,,,,,sub-003,001,2025-01-24_13h21.07.220,NESC3137_N400_exp,2023.2.3,59.93953299573946,2025-01-24 13h22.10.655570 -0400,
violin,0,95,95,169,,,,,,,,,,,,,,,,,,,,,0.15366670000366867,,,,0.12153620002209209,0.12166030000662431,,,,,,,,,,,,,,,,,,,,,,,,,,,,,,,,,,,,,,,,,,,,,,,,,,,,,,,,,,,,,,,,,,,,,,,,,,,,,,,,,,,sub-003,001,2025-01-24_13h21.07.220,NESC3137_N400_exp,2023.2.3,59.93953299573946,2025-01-24 13h22.10.655570 -0400,
snowman,0,96,96,145,,,,,,,,,,,,,,,,,,,,,0.15366670000366867,,,,0.12175380002008751,0.12187200001790188,,,,,,,,,,,,,,,,,,,,,,,,,,,,,,,,,,,,,,,,,,,,,,,,,,,,,,,,,,,,,,,,,,,,,,,,,,,,,,,,,,,sub-003,001,2025-01-24_13h21.07.220,NESC3137_N400_exp,2023.2.3,59.93953299573946,2025-01-24 13h22.10.655570 -0400,
flag,0,97,97,55,,,,,,,,,,,,,,,,,,,,,0.15366670000366867,,,,0.12205260002519935,0.12218190002022311,,,,,,,,,,,,,,,,,,,,,,,,,,,,,,,,,,,,,,,,,,,,,,,,,,,,,,,,,,,,,,,,,,,,,,,,,,,,,,,,,,,sub-003,001,2025-01-24_13h21.07.220,NESC3137_N400_exp,2023.2.3,59.93953299573946,2025-01-24 13h22.10.655570 -0400,
recordplayer,0,98,98,127,,,,,,,,,,,,,,,,,,,,,0.15366670000366867,,,,0.12228060001507401,0.1224194000242278,,,,,,,,,,,,,,,,,,,,,,,,,,,,,,,,,,,,,,,,,,,,,,,,,,,,,,,,,,,,,,,,,,,,,,,,,,,,,,,,,,,sub-003,001,2025-01-24_13h21.07.220,NESC3137_N400_exp,2023.2.3,59.93953299573946,2025-01-24 13h22.10.655570 -0400,
zebra,0,99,99,179,,,,,,,,,,,,,,,,,,,,,0.15366670000366867,,,,0.12259280000580475,0.12271500000497326,,,,,,,,,,,,,,,,,,,,,,,,,,,,,,,,,,,,,,,,,,,,,,,,,,,,,,,,,,,,,,,,,,,,,,,,,,,,,,,,,,,sub-003,001,2025-01-24_13h21.07.220,NESC3137_N400_exp,2023.2.3,59.93953299573946,2025-01-24 13h22.10.655570 -0400,
necklace,0,100,100,103,,,,,,,,,,,,,,,,,,,,,0.15366670000366867,,,,0.1228228000109084,0.12299320002784953,,,,,,,,,,,,,,,,,,,,,,,,,,,,,,,,,,,,,,,,,,,,,,,,,,,,,,,,,,,,,,,,,,,,,,,,,,,,,,,,,,,sub-003,001,2025-01-24_13h21.07.220,NESC3137_N400_exp,2023.2.3,59.93953299573946,2025-01-24 13h22.10.655570 -0400,
rooster,0,101,101,131,,,,,,,,,,,,,,,,,,,,,0.15366670000366867,,,,0.12309980002464727,0.1232466000074055,,,,,,,,,,,,,,,,,,,,,,,,,,,,,,,,,,,,,,,,,,,,,,,,,,,,,,,,,,,,,,,,,,,,,,,,,,,,,,,,,,,sub-003,001,2025-01-24_13h21.07.220,NESC3137_N400_exp,2023.2.3,59.93953299573946,2025-01-24 13h22.10.655570 -0400,
frog,0,102,102,58,,,,,,,,,,,,,,,,,,,,,0.15366670000366867,,,,0.12335140001960099,0.12348030001157895,,,,,,,,,,,,,,,,,,,,,,,,,,,,,,,,,,,,,,,,,,,,,,,,,,,,,,,,,,,,,,,,,,,,,,,,,,,,,,,,,,,sub-003,001,2025-01-24_13h21.07.220,NESC3137_N400_exp,2023.2.3,59.93953299573946,2025-01-24 13h22.10.655570 -0400,
peacock,0,103,103,112,,,,,,,,,,,,,,,,,,,,,0.15366670000366867,,,,0.1235791000071913,0.123706200014567,,,,,,,,,,,,,,,,,,,,,,,,,,,,,,,,,,,,,,,,,,,,,,,,,,,,,,,,,,,,,,,,,,,,,,,,,,,,,,,,,,,sub-003,001,2025-01-24_13h21.07.220,NESC3137_N400_exp,2023.2.3,59.93953299573946,2025-01-24 13h22.10.655570 -0400,
lips,0,104,104,94,,,,,,,,,,,,,,,,,,,,,0.15366670000366867,,,,0.12380040000425652,0.12395360000664368,,,,,,,,,,,,,,,,,,,,,,,,,,,,,,,,,,,,,,,,,,,,,,,,,,,,,,,,,,,,,,,,,,,,,,,,,,,,,,,,,,,sub-003,001,2025-01-24_13h21.07.220,NESC3137_N400_exp,2023.2.3,59.93953299573946,2025-01-24 13h22.10.655570 -0400,
mitten,0,105,105,97,,,,,,,,,,,,,,,,,,,,,0.15366670000366867,,,,0.12404890000470914,0.12417640001513064,,,,,,,,,,,,,,,,,,,,,,,,,,,,,,,,,,,,,,,,,,,,,,,,,,,,,,,,,,,,,,,,,,,,,,,,,,,,,,,,,,,sub-003,001,2025-01-24_13h21.07.220,NESC3137_N400_exp,2023.2.3,59.93953299573946,2025-01-24 13h22.10.655570 -0400,
flower,0,106,106,56,,,,,,,,,,,,,,,,,,,,,0.15366670000366867,,,,0.1242750000092201,0.12439440001617186,,,,,,,,,,,,,,,,,,,,,,,,,,,,,,,,,,,,,,,,,,,,,,,,,,,,,,,,,,,,,,,,,,,,,,,,,,,,,,,,,,,sub-003,001,2025-01-24_13h21.07.220,NESC3137_N400_exp,2023.2.3,59.93953299573946,2025-01-24 13h22.10.655570 -0400,
purse,0,107,107,125,,,,,,,,,,,,,,,,,,,,,0.15366670000366867,,,,0.12449000001652166,0.12461610001628287,,,,,,,,,,,,,,,,,,,,,,,,,,,,,,,,,,,,,,,,,,,,,,,,,,,,,,,,,,,,,,,,,,,,,,,,,,,,,,,,,,,sub-003,001,2025-01-24_13h21.07.220,NESC3137_N400_exp,2023.2.3,59.93953299573946,2025-01-24 13h22.10.655570 -0400,
kettle,0,108,108,81,,,,,,,,,,,,,,,,,,,,,0.15366670000366867,,,,0.12471090001054108,0.12485140000353567,,,,,,,,,,,,,,,,,,,,,,,,,,,,,,,,,,,,,,,,,,,,,,,,,,,,,,,,,,,,,,,,,,,,,,,,,,,,,,,,,,,sub-003,001,2025-01-24_13h21.07.220,NESC3137_N400_exp,2023.2.3,59.93953299573946,2025-01-24 13h22.10.655570 -0400,
bread,0,109,109,20,,,,,,,,,,,,,,,,,,,,,0.15366670000366867,,,,0.12504120002267882,0.12519640001119114,,,,,,,,,,,,,,,,,,,,,,,,,,,,,,,,,,,,,,,,,,,,,,,,,,,,,,,,,,,,,,,,,,,,,,,,,,,,,,,,,,,sub-003,001,2025-01-24_13h21.07.220,NESC3137_N400_exp,2023.2.3,59.93953299573946,2025-01-24 13h22.10.655570 -0400,
grapes,0,110,110,66,,,,,,,,,,,,,,,,,,,,,0.15366670000366867,,,,0.12535630000638776,0.12550650001503527,,,,,,,,,,,,,,,,,,,,,,,,,,,,,,,,,,,,,,,,,,,,,,,,,,,,,,,,,,,,,,,,,,,,,,,,,,,,,,,,,,,sub-003,001,2025-01-24_13h21.07.220,NESC3137_N400_exp,2023.2.3,59.93953299573946,2025-01-24 13h22.10.655570 -0400,
peach,0,111,111,111,,,,,,,,,,,,,,,,,,,,,0.15366670000366867,,,,0.12561300001107156,0.12574560000211932,,,,,,,,,,,,,,,,,,,,,,,,,,,,,,,,,,,,,,,,,,,,,,,,,,,,,,,,,,,,,,,,,,,,,,,,,,,,,,,,,,,sub-003,001,2025-01-24_13h21.07.220,NESC3137_N400_exp,2023.2.3,59.93953299573946,2025-01-24 13h22.10.655570 -0400,
truck,0,112,112,164,,,,,,,,,,,,,,,,,,,,,0.15366670000366867,,,,0.1258502000127919,0.126042400021106,,,,,,,,,,,,,,,,,,,,,,,,,,,,,,,,,,,,,,,,,,,,,,,,,,,,,,,,,,,,,,,,,,,,,,,,,,,,,,,,,,,sub-003,001,2025-01-24_13h21.07.220,NESC3137_N400_exp,2023.2.3,59.93953299573946,2025-01-24 13h22.10.655570 -0400,
pencil,0,113,113,115,,,,,,,,,,,,,,,,,,,,,0.15366670000366867,,,,0.12623530000564642,0.1263840000028722,,,,,,,,,,,,,,,,,,,,,,,,,,,,,,,,,,,,,,,,,,,,,,,,,,,,,,,,,,,,,,,,,,,,,,,,,,,,,,,,,,,sub-003,001,2025-01-24_13h21.07.220,NESC3137_N400_exp,2023.2.3,59.93953299573946,2025-01-24 13h22.10.655570 -0400,
onion,0,114,114,104,,,,,,,,,,,,,,,,,,,,,0.15366670000366867,,,,0.126514200004749,0.12664550001500174,,,,,,,,,,,,,,,,,,,,,,,,,,,,,,,,,,,,,,,,,,,,,,,,,,,,,,,,,,,,,,,,,,,,,,,,,,,,,,,,,,,sub-003,001,2025-01-24_13h21.07.220,NESC3137_N400_exp,2023.2.3,59.93953299573946,2025-01-24 13h22.10.655570 -0400,
fish,0,115,115,54,,,,,,,,,,,,,,,,,,,,,0.15366670000366867,,,,0.12681360001442954,0.12697040001512505,,,,,,,,,,,,,,,,,,,,,,,,,,,,,,,,,,,,,,,,,,,,,,,,,,,,,,,,,,,,,,,,,,,,,,,,,,,,,,,,,,,sub-003,001,2025-01-24_13h21.07.220,NESC3137_N400_exp,2023.2.3,59.93953299573946,2025-01-24 13h22.10.655570 -0400,
pot,0,116,116,123,,,,,,,,,,,,,,,,,,,,,0.15366670000366867,,,,0.12709200000972487,0.12724240001989529,,,,,,,,,,,,,,,,,,,,,,,,,,,,,,,,,,,,,,,,,,,,,,,,,,,,,,,,,,,,,,,,,,,,,,,,,,,,,,,,,,,sub-003,001,2025-01-24_13h21.07.220,NESC3137_N400_exp,2023.2.3,59.93953299573946,2025-01-24 13h22.10.655570 -0400,
bed,0,117,117,13,,,,,,,,,,,,,,,,,,,,,0.15366670000366867,,,,0.1273541000264231,0.12747680000029504,,,,,,,,,,,,,,,,,,,,,,,,,,,,,,,,,,,,,,,,,,,,,,,,,,,,,,,,,,,,,,,,,,,,,,,,,,,,,,,,,,,sub-003,001,2025-01-24_13h21.07.220,NESC3137_N400_exp,2023.2.3,59.93953299573946,2025-01-24 13h22.10.655570 -0400,
bear,0,118,118,12,,,,,,,,,,,,,,,,,,,,,0.15366670000366867,,,,0.12757580002653413,0.12768250002409332,,,,,,,,,,,,,,,,,,,,,,,,,,,,,,,,,,,,,,,,,,,,,,,,,,,,,,,,,,,,,,,,,,,,,,,,,,,,,,,,,,,sub-003,001,2025-01-24_13h21.07.220,NESC3137_N400_exp,2023.2.3,59.93953299573946,2025-01-24 13h22.10.655570 -0400,
drum,0,119,119,46,,,,,,,,,,,,,,,,,,,,,0.15366670000366867,,,,0.12778030001209117,0.12788360001286492,,,,,,,,,,,,,,,,,,,,,,,,,,,,,,,,,,,,,,,,,,,,,,,,,,,,,,,,,,,,,,,,,,,,,,,,,,,,,,,,,,,sub-003,001,2025-01-24_13h21.07.220,NESC3137_N400_exp,2023.2.3,59.93953299573946,2025-01-24 13h22.10.655570 -0400,
dresser,0,120,120,45,,,,,,,,,,,,,,,,,,,,,0.15366670000366867,,,,0.12797880001016892,0.128097600012552,,,,,,,,,,,,,,,,,,,,,,,,,,,,,,,,,,,,,,,,,,,,,,,,,,,,,,,,,,,,,,,,,,,,,,,,,,,,,,,,,,,sub-003,001,2025-01-24_13h21.07.220,NESC3137_N400_exp,2023.2.3,59.93953299573946,2025-01-24 13h22.10.655570 -0400,
mushroom,0,121,121,101,,,,,,,,,,,,,,,,,,,,,0.15366670000366867,,,,0.12819100002525374,0.12830310000572354,,,,,,,,,,,,,,,,,,,,,,,,,,,,,,,,,,,,,,,,,,,,,,,,,,,,,,,,,,,,,,,,,,,,,,,,,,,,,,,,,,,sub-003,001,2025-01-24_13h21.07.220,NESC3137_N400_exp,2023.2.3,59.93953299573946,2025-01-24 13h22.10.655570 -0400,
hair,0,122,122,69,,,,,,,,,,,,,,,,,,,,,0.15366670000366867,,,,0.12839970001368783,0.12849940001615323,,,,,,,,,,,,,,,,,,,,,,,,,,,,,,,,,,,,,,,,,,,,,,,,,,,,,,,,,,,,,,,,,,,,,,,,,,,,,,,,,,,sub-003,001,2025-01-24_13h21.07.220,NESC3137_N400_exp,2023.2.3,59.93953299573946,2025-01-24 13h22.10.655570 -0400,
hand,0,123,123,71,,,,,,,,,,,,,,,,,,,,,0.15366670000366867,,,,0.12860830000136048,0.12871080002514645,,,,,,,,,,,,,,,,,,,,,,,,,,,,,,,,,,,,,,,,,,,,,,,,,,,,,,,,,,,,,,,,,,,,,,,,,,,,,,,,,,,sub-003,001,2025-01-24_13h21.07.220,NESC3137_N400_exp,2023.2.3,59.93953299573946,2025-01-24 13h22.10.655570 -0400,
barrel,0,124,124,10,,,,,,,,,,,,,,,,,,,,,0.15366670000366867,,,,0.12880330000189133,0.12892300001112744,,,,,,,,,,,,,,,,,,,,,,,,,,,,,,,,,,,,,,,,,,,,,,,,,,,,,,,,,,,,,,,,,,,,,,,,,,,,,,,,,,,sub-003,001,2025-01-24_13h21.07.220,NESC3137_N400_exp,2023.2.3,59.93953299573946,2025-01-24 13h22.10.655570 -0400,
sheep,0,125,125,139,,,,,,,,,,,,,,,,,,,,,0.15366670000366867,,,,0.12901370000327006,0.12911230002646334,,,,,,,,,,,,,,,,,,,,,,,,,,,,,,,,,,,,,,,,,,,,,,,,,,,,,,,,,,,,,,,,,,,,,,,,,,,,,,,,,,,sub-003,001,2025-01-24_13h21.07.220,NESC3137_N400_exp,2023.2.3,59.93953299573946,2025-01-24 13h22.10.655570 -0400,
butterfly,0,126,126,21,,,,,,,,,,,,,,,,,,,,,0.15366670000366867,,,,0.1292070000199601,0.1293026000203099,,,,,,,,,,,,,,,,,,,,,,,,,,,,,,,,,,,,,,,,,,,,,,,,,,,,,,,,,,,,,,,,,,,,,,,,,,,,,,,,,,,sub-003,001,2025-01-24_13h21.07.220,NESC3137_N400_exp,2023.2.3,59.93953299573946,2025-01-24 13h22.10.655570 -0400,
moon,0,127,127,99,,,,,,,,,,,,,,,,,,,,,0.15366670000366867,,,,0.12940120001439936,0.1295008000161033,,,,,,,,,,,,,,,,,,,,,,,,,,,,,,,,,,,,,,,,,,,,,,,,,,,,,,,,,,,,,,,,,,,,,,,,,,,,,,,,,,,sub-003,001,2025-01-24_13h21.07.220,NESC3137_N400_exp,2023.2.3,59.93953299573946,2025-01-24 13h22.10.655570 -0400,
fence,0,128,128,53,,,,,,,,,,,,,,,,,,,,,0.15366670000366867,,,,0.12959419999970123,0.12968980000005104,,,,,,,,,,,,,,,,,,,,,,,,,,,,,,,,,,,,,,,,,,,,,,,,,,,,,,,,,,,,,,,,,,,,,,,,,,,,,,,,,,,sub-003,001,2025-01-24_13h21.07.220,NESC3137_N400_exp,2023.2.3,59.93953299573946,2025-01-24 13h22.10.655570 -0400,
pipe,0,129,129,120,,,,,,,,,,,,,,,,,,,,,0.15366670000366867,,,,0.12978050002129748,0.12989350000862032,,,,,,,,,,,,,,,,,,,,,,,,,,,,,,,,,,,,,,,,,,,,,,,,,,,,,,,,,,,,,,,,,,,,,,,,,,,,,,,,,,,sub-003,001,2025-01-24_13h21.07.220,NESC3137_N400_exp,2023.2.3,59.93953299573946,2025-01-24 13h22.10.655570 -0400,
ladder,0,130,130,85,,,,,,,,,,,,,,,,,,,,,0.15366670000366867,,,,0.12998399999924004,0.13008210001862608,,,,,,,,,,,,,,,,,,,,,,,,,,,,,,,,,,,,,,,,,,,,,,,,,,,,,,,,,,,,,,,,,,,,,,,,,,,,,,,,,,,sub-003,001,2025-01-24_13h21.07.220,NESC3137_N400_exp,2023.2.3,59.93953299573946,2025-01-24 13h22.10.655570 -0400,
church,0,131,131,32,,,,,,,,,,,,,,,,,,,,,0.15366670000366867,,,,0.13017020002007484,0.1303259000123944,,,,,,,,,,,,,,,,,,,,,,,,,,,,,,,,,,,,,,,,,,,,,,,,,,,,,,,,,,,,,,,,,,,,,,,,,,,,,,,,,,,sub-003,001,2025-01-24_13h21.07.220,NESC3137_N400_exp,2023.2.3,59.93953299573946,2025-01-24 13h22.10.655570 -0400,
leg,0,132,132,88,,,,,,,,,,,,,,,,,,,,,0.15366670000366867,,,,0.1305321000108961,0.13072960000135936,,,,,,,,,,,,,,,,,,,,,,,,,,,,,,,,,,,,,,,,,,,,,,,,,,,,,,,,,,,,,,,,,,,,,,,,,,,,,,,,,,,sub-003,001,2025-01-24_13h21.07.220,NESC3137_N400_exp,2023.2.3,59.93953299573946,2025-01-24 13h22.10.655570 -0400,
salt,0,133,133,133,,,,,,,,,,,,,,,,,,,,,0.15366670000366867,,,,0.1309620000247378,0.1311310000019148,,,,,,,,,,,,,,,,,,,,,,,,,,,,,,,,,,,,,,,,,,,,,,,,,,,,,,,,,,,,,,,,,,,,,,,,,,,,,,,,,,,sub-003,001,2025-01-24_13h21.07.220,NESC3137_N400_exp,2023.2.3,59.93953299573946,2025-01-24 13h22.10.655570 -0400,
kangaroo,0,134,134,80,,,,,,,,,,,,,,,,,,,,,0.15366670000366867,,,,0.13132680000853725,0.13148650000221096,,,,,,,,,,,,,,,,,,,,,,,,,,,,,,,,,,,,,,,,,,,,,,,,,,,,,,,,,,,,,,,,,,,,,,,,,,,,,,,,,,,sub-003,001,2025-01-24_13h21.07.220,NESC3137_N400_exp,2023.2.3,59.93953299573946,2025-01-24 13h22.10.655570 -0400,
balloon,0,135,135,8,,,,,,,,,,,,,,,,,,,,,0.15366670000366867,,,,0.13172680002753623,0.13188550001359545,,,,,,,,,,,,,,,,,,,,,,,,,,,,,,,,,,,,,,,,,,,,,,,,,,,,,,,,,,,,,,,,,,,,,,,,,,,,,,,,,,,sub-003,001,2025-01-24_13h21.07.220,NESC3137_N400_exp,2023.2.3,59.93953299573946,2025-01-24 13h22.10.655570 -0400,
rabbit,0,136,136,126,,,,,,,,,,,,,,,,,,,,,0.15366670000366867,,,,0.13207550000515766,0.13221680000424385,,,,,,,,,,,,,,,,,,,,,,,,,,,,,,,,,,,,,,,,,,,,,,,,,,,,,,,,,,,,,,,,,,,,,,,,,,,,,,,,,,,sub-003,001,2025-01-24_13h21.07.220,NESC3137_N400_exp,2023.2.3,59.93953299573946,2025-01-24 13h22.10.655570 -0400,
seahorse,0,137,137,137,,,,,,,,,,,,,,,,,,,,,0.15366670000366867,,,,0.1324056000157725,0.13255780001054518,,,,,,,,,,,,,,,,,,,,,,,,,,,,,,,,,,,,,,,,,,,,,,,,,,,,,,,,,,,,,,,,,,,,,,,,,,,,,,,,,,,sub-003,001,2025-01-24_13h21.07.220,NESC3137_N400_exp,2023.2.3,59.93953299573946,2025-01-24 13h22.10.655570 -0400,
camel,0,138,138,24,,,,,,,,,,,,,,,,,,,,,0.15366670000366867,,,,0.1327414000115823,0.13288119999924675,,,,,,,,,,,,,,,,,,,,,,,,,,,,,,,,,,,,,,,,,,,,,,,,,,,,,,,,,,,,,,,,,,,,,,,,,,,,,,,,,,,sub-003,001,2025-01-24_13h21.07.220,NESC3137_N400_exp,2023.2.3,59.93953299573946,2025-01-24 13h22.10.655570 -0400,
cigarette,0,139,139,33,,,,,,,,,,,,,,,,,,,,,0.15366670000366867,,,,0.13303610001457855,0.13316220001433976,,,,,,,,,,,,,,,,,,,,,,,,,,,,,,,,,,,,,,,,,,,,,,,,,,,,,,,,,,,,,,,,,,,,,,,,,,,,,,,,,,,sub-003,001,2025-01-24_13h21.07.220,NESC3137_N400_exp,2023.2.3,59.93953299573946,2025-01-24 13h22.10.655570 -0400,
fox,0,140,140,57,,,,,,,,,,,,,,,,,,,,,0.15366670000366867,,,,0.13331900001503527,0.13343740001437254,,,,,,,,,,,,,,,,,,,,,,,,,,,,,,,,,,,,,,,,,,,,,,,,,,,,,,,,,,,,,,,,,,,,,,,,,,,,,,,,,,,sub-003,001,2025-01-24_13h21.07.220,NESC3137_N400_exp,2023.2.3,59.93953299573946,2025-01-24 13h22.10.655570 -0400,
wheel,0,141,141,173,,,,,,,,,,,,,,,,,,,,,0.15366670000366867,,,,0.1335564000182785,0.13365910001448356,,,,,,,,,,,,,,,,,,,,,,,,,,,,,,,,,,,,,,,,,,,,,,,,,,,,,,,,,,,,,,,,,,,,,,,,,,,,,,,,,,,sub-003,001,2025-01-24_13h21.07.220,NESC3137_N400_exp,2023.2.3,59.93953299573946,2025-01-24 13h22.10.655570 -0400,
windmill,0,142,142,175,,,,,,,,,,,,,,,,,,,,,0.15366670000366867,,,,0.13375590002397075,0.13384819999919273,,,,,,,,,,,,,,,,,,,,,,,,,,,,,,,,,,,,,,,,,,,,,,,,,,,,,,,,,,,,,,,,,,,,,,,,,,,,,,,,,,,sub-003,001,2025-01-24_13h21.07.220,NESC3137_N400_exp,2023.2.3,59.93953299573946,2025-01-24 13h22.10.655570 -0400,
gun,0,143,143,68,,,,,,,,,,,,,,,,,,,,,0.15366670000366867,,,,0.13394240001798607,0.13403320001089014,,,,,,,,,,,,,,,,,,,,,,,,,,,,,,,,,,,,,,,,,,,,,,,,,,,,,,,,,,,,,,,,,,,,,,,,,,,,,,,,,,,sub-003,001,2025-01-24_13h21.07.220,NESC3137_N400_exp,2023.2.3,59.93953299573946,2025-01-24 13h22.10.655570 -0400,
penguin,0,144,144,116,,,,,,,,,,,,,,,,,,,,,0.15366670000366867,,,,0.1341551000077743,0.13430660002632067,,,,,,,,,,,,,,,,,,,,,,,,,,,,,,,,,,,,,,,,,,,,,,,,,,,,,,,,,,,,,,,,,,,,,,,,,,,,,,,,,,,sub-003,001,2025-01-24_13h21.07.220,NESC3137_N400_exp,2023.2.3,59.93953299573946,2025-01-24 13h22.10.655570 -0400,
envelope,0,145,145,50,,,,,,,,,,,,,,,,,,,,,0.15366670000366867,,,,0.13440050001372583,0.1345263000112027,,,,,,,,,,,,,,,,,,,,,,,,,,,,,,,,,,,,,,,,,,,,,,,,,,,,,,,,,,,,,,,,,,,,,,,,,,,,,,,,,,,sub-003,001,2025-01-24_13h21.07.220,NESC3137_N400_exp,2023.2.3,59.93953299573946,2025-01-24 13h22.10.655570 -0400,
lobster,0,146,146,95,,,,,,,,,,,,,,,,,,,,,0.15366670000366867,,,,0.1346907000115607,0.13483130000531673,,,,,,,,,,,,,,,,,,,,,,,,,,,,,,,,,,,,,,,,,,,,,,,,,,,,,,,,,,,,,,,,,,,,,,,,,,,,,,,,,,,sub-003,001,2025-01-24_13h21.07.220,NESC3137_N400_exp,2023.2.3,59.93953299573946,2025-01-24 13h22.10.655570 -0400,
ring,0,147,147,129,,,,,,,,,,,,,,,,,,,,,0.15366670000366867,,,,0.13495160001912154,0.1350444000272546,,,,,,,,,,,,,,,,,,,,,,,,,,,,,,,,,,,,,,,,,,,,,,,,,,,,,,,,,,,,,,,,,,,,,,,,,,,,,,,,,,,sub-003,001,2025-01-24_13h21.07.220,NESC3137_N400_exp,2023.2.3,59.93953299573946,2025-01-24 13h22.10.655570 -0400,
book,0,148,148,17,,,,,,,,,,,,,,,,,,,,,0.15366670000366867,,,,0.13513629999943078,0.1353042000264395,,,,,,,,,,,,,,,,,,,,,,,,,,,,,,,,,,,,,,,,,,,,,,,,,,,,,,,,,,,,,,,,,,,,,,,,,,,,,,,,,,,sub-003,001,2025-01-24_13h21.07.220,NESC3137_N400_exp,2023.2.3,59.93953299573946,2025-01-24 13h22.10.655570 -0400,
nail,0,149,149,102,,,,,,,,,,,,,,,,,,,,,0.15366670000366867,,,,0.1354425000026822,0.13561090000439435,,,,,,,,,,,,,,,,,,,,,,,,,,,,,,,,,,,,,,,,,,,,,,,,,,,,,,,,,,,,,,,,,,,,,,,,,,,,,,,,,,,sub-003,001,2025-01-24_13h21.07.220,NESC3137_N400_exp,2023.2.3,59.93953299573946,2025-01-24 13h22.10.655570 -0400,
snake,0,150,150,154,,,,,,,,,,,,,,,,,,,,,0.15366670000366867,,,,0.13572270001168363,0.13592510001035407,,,,,,,,,,,,,,,,,,,,,,,,,,,,,,,,,,,,,,,,,,,,,,,,,,,,,,,,,,,,,,,,,,,,,,,,,,,,,,,,,,,sub-003,001,2025-01-24_13h21.07.220,NESC3137_N400_exp,2023.2.3,59.93953299573946,2025-01-24 13h22.10.655570 -0400,
pumpkin,0,151,151,128,,,,,,,,,,,,,,,,,,,,,0.15366670000366867,,,,0.13605300002382137,0.1361765000037849,,,,,,,,,,,,,,,,,,,,,,,,,,,,,,,,,,,,,,,,,,,,,,,,,,,,,,,,,,,,,,,,,,,,,,,,,,,,,,,,,,,sub-003,001,2025-01-24_13h21.07.220,NESC3137_N400_exp,2023.2.3,59.93953299573946,2025-01-24 13h22.10.655570 -0400,
garbagecan,0,152,152,60,,,,,,,,,,,,,,,,,,,,,0.15366670000366867,,,,0.1363005000166595,0.13643570002750494,,,,,,,,,,,,,,,,,,,,,,,,,,,,,,,,,,,,,,,,,,,,,,,,,,,,,,,,,,,,,,,,,,,,,,,,,,,,,,,,,,,sub-003,001,2025-01-24_13h21.07.220,NESC3137_N400_exp,2023.2.3,59.93953299573946,2025-01-24 13h22.10.655570 -0400,
babycarriage,0,153,153,7,,,,,,,,,,,,,,,,,,,,,0.15366670000366867,,,,0.13655530000687577,0.13667980002355762,,,,,,,,,,,,,,,,,,,,,,,,,,,,,,,,,,,,,,,,,,,,,,,,,,,,,,,,,,,,,,,,,,,,,,,,,,,,,,,,,,,sub-003,001,2025-01-24_13h21.07.220,NESC3137_N400_exp,2023.2.3,59.93953299573946,2025-01-24 13h22.10.655570 -0400,
lightswitch,0,154,154,92,,,,,,,,,,,,,,,,,,,,,0.15366670000366867,,,,0.13679550000233576,0.13690150002366863,,,,,,,,,,,,,,,,,,,,,,,,,,,,,,,,,,,,,,,,,,,,,,,,,,,,,,,,,,,,,,,,,,,,,,,,,,,,,,,,,,,sub-003,001,2025-01-24_13h21.07.220,NESC3137_N400_exp,2023.2.3,59.93953299573946,2025-01-24 13h22.10.655570 -0400,
dog,0,155,155,42,,,,,,,,,,,,,,,,,,,,,0.15366670000366867,,,,0.13700130002689548,0.13711060001514852,,,,,,,,,,,,,,,,,,,,,,,,,,,,,,,,,,,,,,,,,,,,,,,,,,,,,,,,,,,,,,,,,,,,,,,,,,,,,,,,,,,sub-003,001,2025-01-24_13h21.07.220,NESC3137_N400_exp,2023.2.3,59.93953299573946,2025-01-24 13h22.10.655570 -0400,
fence,0,156,156,52,,,,,,,,,,,,,,,,,,,,,0.15366670000366867,,,,0.13720360002480447,0.13730160001432523,,,,,,,,,,,,,,,,,,,,,,,,,,,,,,,,,,,,,,,,,,,,,,,,,,,,,,,,,,,,,,,,,,,,,,,,,,,,,,,,,,,sub-003,001,2025-01-24_13h21.07.220,NESC3137_N400_exp,2023.2.3,59.93953299573946,2025-01-24 13h22.10.655570 -0400,
anchor,0,157,157,3,,,,,,,,,,,,,,,,,,,,,0.15366670000366867,,,,0.1373942000209354,0.13752330001443624,,,,,,,,,,,,,,,,,,,,,,,,,,,,,,,,,,,,,,,,,,,,,,,,,,,,,,,,,,,,,,,,,,,,,,,,,,,,,,,,,,,sub-003,001,2025-01-24_13h21.07.220,NESC3137_N400_exp,2023.2.3,59.93953299573946,2025-01-24 13h22.10.655570 -0400,
trafficlight,0,158,158,162,,,,,,,,,,,,,,,,,,,,,0.15366670000366867,,,,0.1376470000250265,0.13776790001429617,,,,,,,,,,,,,,,,,,,,,,,,,,,,,,,,,,,,,,,,,,,,,,,,,,,,,,,,,,,,,,,,,,,,,,,,,,,,,,,,,,,sub-003,001,2025-01-24_13h21.07.220,NESC3137_N400_exp,2023.2.3,59.93953299573946,2025-01-24 13h22.10.655570 -0400,
apple,0,159,159,4,,,,,,,,,,,,,,,,,,,,,0.15366670000366867,,,,0.13790850000805221,0.13801340002100915,,,,,,,,,,,,,,,,,,,,,,,,,,,,,,,,,,,,,,,,,,,,,,,,,,,,,,,,,,,,,,,,,,,,,,,,,,,,,,,,,,,sub-003,001,2025-01-24_13h21.07.220,NESC3137_N400_exp,2023.2.3,59.93953299573946,2025-01-24 13h22.10.655570 -0400,
piano,0,160,160,117,,,,,,,,,,,,,,,,,,,,,0.15366670000366867,,,,0.13811330002499744,0.13831320000463165,,,,,,,,,,,,,,,,,,,,,,,,,,,,,,,,,,,,,,,,,,,,,,,,,,,,,,,,,,,,,,,,,,,,,,,,,,,,,,,,,,,sub-003,001,2025-01-24_13h21.07.220,NESC3137_N400_exp,2023.2.3,59.93953299573946,2025-01-24 13h22.10.655570 -0400,
swan,0,161,161,153,,,,,,,,,,,,,,,,,,,,,0.15366670000366867,,,,0.13842820000718348,0.13860410000779666,,,,,,,,,,,,,,,,,,,,,,,,,,,,,,,,,,,,,,,,,,,,,,,,,,,,,,,,,,,,,,,,,,,,,,,,,,,,,,,,,,,sub-003,001,2025-01-24_13h21.07.220,NESC3137_N400_exp,2023.2.3,59.93953299573946,2025-01-24 13h22.10.655570 -0400,
potato,0,162,162,124,,,,,,,,,,,,,,,,,,,,,0.15366670000366867,,,,0.13879540000925772,0.13902020000386983,,,,,,,,,,,,,,,,,,,,,,,,,,,,,,,,,,,,,,,,,,,,,,,,,,,,,,,,,,,,,,,,,,,,,,,,,,,,,,,,,,,sub-003,001,2025-01-24_13h21.07.220,NESC3137_N400_exp,2023.2.3,59.93953299573946,2025-01-24 13h22.10.655570 -0400,
lightbulb,0,163,163,91,,,,,,,,,,,,,,,,,,,,,0.15366670000366867,,,,0.13918910000938922,0.1393386000127066,,,,,,,,,,,,,,,,,,,,,,,,,,,,,,,,,,,,,,,,,,,,,,,,,,,,,,,,,,,,,,,,,,,,,,,,,,,,,,,,,,,sub-003,001,2025-01-24_13h21.07.220,NESC3137_N400_exp,2023.2.3,59.93953299573946,2025-01-24 13h22.10.655570 -0400,
horse,0,164,164,77,,,,,,,,,,,,,,,,,,,,,0.15366670000366867,,,,0.13947950000874698,0.13959830001113005,,,,,,,,,,,,,,,,,,,,,,,,,,,,,,,,,,,,,,,,,,,,,,,,,,,,,,,,,,,,,,,,,,,,,,,,,,,,,,,,,,,sub-003,001,2025-01-24_13h21.07.220,NESC3137_N400_exp,2023.2.3,59.93953299573946,2025-01-24 13h22.10.655570 -0400,
cat,0,165,165,28,,,,,,,,,,,,,,,,,,,,,0.15366670000366867,,,,0.13970680002239533,0.13984250000794418,,,,,,,,,,,,,,,,,,,,,,,,,,,,,,,,,,,,,,,,,,,,,,,,,,,,,,,,,,,,,,,,,,,,,,,,,,,,,,,,,,,sub-003,001,2025-01-24_13h21.07.220,NESC3137_N400_exp,2023.2.3,59.93953299573946,2025-01-24 13h22.10.655570 -0400,
doll,0,166,166,43,,,,,,,,,,,,,,,,,,,,,0.15366670000366867,,,,0.13994500000262633,0.14008840001770295,,,,,,,,,,,,,,,,,,,,,,,,,,,,,,,,,,,,,,,,,,,,,,,,,,,,,,,,,,,,,,,,,,,,,,,,,,,,,,,,,,,sub-003,001,2025-01-24_13h21.07.220,NESC3137_N400_exp,2023.2.3,59.93953299573946,2025-01-24 13h22.10.655570 -0400,
clock,0,167,167,34,,,,,,,,,,,,,,,,,,,,,0.15366670000366867,,,,0.14019260002532974,0.14034990000072867,,,,,,,,,,,,,,,,,,,,,,,,,,,,,,,,,,,,,,,,,,,,,,,,,,,,,,,,,,,,,,,,,,,,,,,,,,,,,,,,,,,sub-003,001,2025-01-24_13h21.07.220,NESC3137_N400_exp,2023.2.3,59.93953299573946,2025-01-24 13h22.10.655570 -0400,
window,0,168,168,176,,,,,,,,,,,,,,,,,,,,,0.15366670000366867,,,,0.1405496000079438,0.14071920001879334,,,,,,,,,,,,,,,,,,,,,,,,,,,,,,,,,,,,,,,,,,,,,,,,,,,,,,,,,,,,,,,,,,,,,,,,,,,,,,,,,,,sub-003,001,2025-01-24_13h21.07.220,NESC3137_N400_exp,2023.2.3,59.93953299573946,2025-01-24 13h22.10.655570 -0400,
pants,0,169,169,109,,,,,,,,,,,,,,,,,,,,,0.15366670000366867,,,,0.14090980001492426,0.1410535000031814,,,,,,,,,,,,,,,,,,,,,,,,,,,,,,,,,,,,,,,,,,,,,,,,,,,,,,,,,,,,,,,,,,,,,,,,,,,,,,,,,,,sub-003,001,2025-01-24_13h21.07.220,NESC3137_N400_exp,2023.2.3,59.93953299573946,2025-01-24 13h22.10.655570 -0400,
basket,0,170,170,11,,,,,,,,,,,,,,,,,,,,,0.15366670000366867,,,,0.14122730001690798,0.14144400000805035,,,,,,,,,,,,,,,,,,,,,,,,,,,,,,,,,,,,,,,,,,,,,,,,,,,,,,,,,,,,,,,,,,,,,,,,,,,,,,,,,,,sub-003,001,2025-01-24_13h21.07.220,NESC3137_N400_exp,2023.2.3,59.93953299573946,2025-01-24 13h22.10.655570 -0400,
lemon,0,171,171,89,,,,,,,,,,,,,,,,,,,,,0.15366670000366867,,,,0.14161990000866354,0.1417628000199329,,,,,,,,,,,,,,,,,,,,,,,,,,,,,,,,,,,,,,,,,,,,,,,,,,,,,,,,,,,,,,,,,,,,,,,,,,,,,,,,,,,sub-003,001,2025-01-24_13h21.07.220,NESC3137_N400_exp,2023.2.3,59.93953299573946,2025-01-24 13h22.10.655570 -0400,
banana,0,172,172,9,,,,,,,,,,,,,,,,,,,,,0.15366670000366867,,,,0.14192200000979938,0.14205120000406168,,,,,,,,,,,,,,,,,,,,,,,,,,,,,,,,,,,,,,,,,,,,,,,,,,,,,,,,,,,,,,,,,,,,,,,,,,,,,,,,,,,sub-003,001,2025-01-24_13h21.07.220,NESC3137_N400_exp,2023.2.3,59.93953299573946,2025-01-24 13h22.10.655570 -0400,
tiger,0,173,173,159,,,,,,,,,,,,,,,,,,,,,0.15366670000366867,,,,0.14216240000678226,0.14231049999943934,,,,,,,,,,,,,,,,,,,,,,,,,,,,,,,,,,,,,,,,,,,,,,,,,,,,,,,,,,,,,,,,,,,,,,,,,,,,,,,,,,,sub-003,001,2025-01-24_13h21.07.220,NESC3137_N400_exp,2023.2.3,59.93953299573946,2025-01-24 13h22.10.655570 -0400,
pitcher,0,174,174,121,,,,,,,,,,,,,,,,,,,,,0.15366670000366867,,,,0.14246050000656396,0.14256260002730414,,,,,,,,,,,,,,,,,,,,,,,,,,,,,,,,,,,,,,,,,,,,,,,,,,,,,,,,,,,,,,,,,,,,,,,,,,,,,,,,,,,sub-003,001,2025-01-24_13h21.07.220,NESC3137_N400_exp,2023.2.3,59.93953299573946,2025-01-24 13h22.10.655570 -0400,
sandwich,0,175,175,134,,,,,,,,,,,,,,,,,,,,,0.15366670000366867,,,,0.14265760002308525,0.1427554000110831,,,,,,,,,,,,,,,,,,,,,,,,,,,,,,,,,,,,,,,,,,,,,,,,,,,,,,,,,,,,,,,,,,,,,,,,,,,,,,,,,,,sub-003,001,2025-01-24_13h21.07.220,NESC3137_N400_exp,2023.2.3,59.93953299573946,2025-01-24 13h22.10.655570 -0400,
monkey,0,176,176,98,,,,,,,,,,,,,,,,,,,,,0.15366670000366867,,,,0.14299710001796484,0.14315270000952296,,,,,,,,,,,,,,,,,,,,,,,,,,,,,,,,,,,,,,,,,,,,,,,,,,,,,,,,,,,,,,,,,,,,,,,,,,,,,,,,,,,sub-003,001,2025-01-24_13h21.07.220,NESC3137_N400_exp,2023.2.3,59.93953299573946,2025-01-24 13h22.10.655570 -0400,
watermelon,0,177,177,171,,,,,,,,,,,,,,,,,,,,,0.15366670000366867,,,,0.1433577999996487,0.14351550000719726,,,,,,,,,,,,,,,,,,,,,,,,,,,,,,,,,,,,,,,,,,,,,,,,,,,,,,,,,,,,,,,,,,,,,,,,,,,,,,,,,,,sub-003,001,2025-01-24_13h21.07.220,NESC3137_N400_exp,2023.2.3,59.93953299573946,2025-01-24 13h22.10.655570 -0400,
harp,0,178,178,73,,,,,,,,,,,,,,,,,,,,,0.15366670000366867,,,,0.1436264000076335,0.1437525000073947,,,,,,,,,,,,,,,,,,,,,,,,,,,,,,,,,,,,,,,,,,,,,,,,,,,,,,,,,,,,,,,,,,,,,,,,,,,,,,,,,,,sub-003,001,2025-01-24_13h21.07.220,NESC3137_N400_exp,2023.2.3,59.93953299573946,2025-01-24 13h22.10.655570 -0400,
seal,0,179,179,138,,,,,,,,,,,,,,,,,,,,,0.15366670000366867,,,,0.1438495000184048,0.143956200015964,,,,,,,,,,,,,,,,,,,,,,,,,,,,,,,,,,,,,,,,,,,,,,,,,,,,,,,,,,,,,,,,,,,,,,,,,,,,,,,,,,,sub-003,001,2025-01-24_13h21.07.220,NESC3137_N400_exp,2023.2.3,59.93953299573946,2025-01-24 13h22.10.655570 -0400,
,,,,,0,0,0,0,,,,,,,,,,,,,,,,,0.15366670000366867,,,,,,0.1443132999993395,0.14466070002526976,,,,,,,,,,,,,,,,,,,,,,,,,,,,,,,,,,,,,,,,,,,,,,,,,,,,,,,,,,,,,,,,,,,,,,,,,,,,,,,,,sub-003,001,2025-01-24_13h21.07.220,NESC3137_N400_exp,2023.2.3,59.93953299573946,2025-01-24 13h22.10.655570 -0400,
,,,,,,,,,,,,,,,,,,,,,,,,,,,,,,,,,0.14468550001038238,0.15366670000366867,0.15366670000366867,187.50967800000217,space,187.343703200022,None,,,,,,,,,,,,,,,,,,,,,,,,,,,,,,,,,,,,,,,,,,,,,,,,,,,,,,,,,,,,,,,,,,,,,,,,,,sub-003,001,2025-01-24_13h21.07.220,NESC3137_N400_exp,2023.2.3,59.93953299573946,2025-01-24 13h22.10.655570 -0400,
,,,,,,,,,0,0,0,0,,,,,,,,,,,,,187.52543680000235,,,,,,,,,,,,,,,187.510391000018,187.52543680000235,188.03706120001152,188.0095879000146,188.00959750000038,188.03706120001152,188.50957683000016,190.0444158000173,190.02895400000853,190.0289709000208,191.16253020000295,191.16253020000295,194.165272800019,194.165272800019,194.165272800019,195.1662679000001,195.15035060001537,lamp,resources/stimuli/lamp.wav,[],left,0,[],None,0,,,,,,,,,,,,,,,,,,,,,,,,,,,,,,,,,,,,,,,,,,,,,,,,,sub-003,001,2025-01-24_13h21.07.220,NESC3137_N400_exp,2023.2.3,59.93953299573946,2025-01-24 13h22.10.655570 -0400,
,,,,,,,,,1,0,1,0,,,,,,,,,,,,,195.1662679000001,,,,,,,,,,,,,,,195.15146090000053,195.1662679000001,195.67333480002708,195.65091770002618,195.65093570001773,195.67333480002708,196.16740173000144,197.6856993000256,197.66937740001595,197.66938700000173,198.81999150000047,198.81999150000047,,,,,199.20449230002123,rooster,resources/stimuli/rooster.wav,left,left,1,374.0172999969218,left,1,0.3740172999969218,None,,,,,,,,,,,,,,,,,,,,,,,,,,,,,,,,,,,,,,,,,,,,,,,sub-003,001,2025-01-24_13h21.07.220,NESC3137_N400_exp,2023.2.3,59.93953299573946,2025-01-24 13h22.10.655570 -0400,
,,,,,,,,,2,0,2,0,,,,,,,,,,,,,199.22028639999917,,,,,,,,,,,,,,,199.20637320002425,199.22028639999917,199.73293040000135,199.70473900000798,199.70474770001601,199.73293040000135,200.20490563000786,201.73978400000487,201.72331620001933,201.72333370000706,202.85723150000558,202.85723150000558,,,,,203.37522680000984,onion,resources/stimuli/onion_foil.wav,right,right,1,504.64820000343025,right,1,0.5046482000034302,None,,,,,,,,,,,,,,,,,,,,,,,,,,,,,,,,,,,,,,,,,,,,,,,sub-003,001,2025-01-24_13h21.07.220,NESC3137_N400_exp,2023.2.3,59.93953299573946,2025-01-24 13h22.10.655570 -0400,
,,,,,,,,,3,0,3,0,,,,,,,,,,,,,203.39262310002232,,,,,,,,,,,,,,,203.37634000001708,203.39262310002232,203.8962981000077,203.8759151000122,203.87593000000925,203.8962981000077,204.3766837300267,205.91028310000547,205.8942451000039,205.89425680000568,207.02800800002296,207.02800800002296,,,,,207.36274850001791,snake,resources/stimuli/snake.wav,left,left,1,325.44590000179596,left,1,0.32544590000179596,None,,,,,,,,,,,,,,,,,,,,,,,,,,,,,,,,,,,,,,,,,,,,,,,sub-003,001,2025-01-24_13h21.07.220,NESC3137_N400_exp,2023.2.3,59.93953299573946,2025-01-24 13h22.10.655570 -0400,
,,,,,,,,,4,0,4,0,,,,,,,,,,,,,207.37836390000302,,,,,,,,,,,,,,,207.36415000000852,207.37836390000302,207.8841152000241,207.86276840002392,207.86278290001792,207.8841152000241,208.36471523001674,209.89863370000967,209.88241310001467,209.8824234000058,211.01572740002302,211.01572740002302,,,,,211.44998340000166,penguin,resources/stimuli/penguin.wav,left,left,1,426.2694999924861,left,1,0.4262694999924861,None,,,,,,,,,,,,,,,,,,,,,,,,,,,,,,,,,,,,,,,,,,,,,,,sub-003,001,2025-01-24_13h21.07.220,NESC3137_N400_exp,2023.2.3,59.93953299573946,2025-01-24 13h22.10.655570 -0400,
,,,,,,,,,5,0,5,0,,,,,,,,,,,,,211.46618300001137,,,,,,,,,,,,,,,211.4510645000264,211.46618300001137,211.97246420002193,211.95047340000747,211.95048330002464,211.97246420002193,212.4502919300052,213.98533760002465,213.96878840000136,213.9687992000254,215.10321210001712,215.10321210001712,,,,,215.45395750002353,snail,resources/stimuli/snail_foil.wav,right,right,1,338.56180001748726,right,1,0.33856180001748726,None,,,,,,,,,,,,,,,,,,,,,,,,,,,,,,,,,,,,,,,,,,,,,,,sub-003,001,2025-01-24_13h21.07.220,NESC3137_N400_exp,2023.2.3,59.93953299573946,2025-01-24 13h22.10.655570 -0400,
,,,,,,,,,6,0,6,0,,,,,,,,,,,,,215.47015390000888,,,,,,,,,,,,,,,215.4552965000039,215.47015390000888,215.97729660000186,215.95405270002084,215.9540639000188,215.97729660000186,216.4544010300073,217.98977240000386,217.97312629999942,217.973148900026,219.10749850000138,219.10749850000138,,,,,219.5422236000013,piano,resources/stimuli/piano_foil.wav,right,right,1,430.4800000099931,right,1,0.4304800000099931,None,,,,,,,,,,,,,,,,,,,,,,,,,,,,,,,,,,,,,,,,,,,,,,,sub-003,001,2025-01-24_13h21.07.220,NESC3137_N400_exp,2023.2.3,59.93953299573946,2025-01-24 13h22.10.655570 -0400,
,,,,,,,,,7,0,7,0,,,,,,,,,,,,,219.55726739999955,,,,,,,,,,,,,,,219.5434660000028,219.55726739999955,220.06356680000317,220.0418200000131,220.04182820001733,220.06356680000317,220.55819213000942,222.0763191000151,222.06014900002629,222.0601598000212,223.1945022,223.1945022,,,,,223.745519100019,whistle,resources/stimuli/whistle_foil.wav,right,right,1,542.8405000129715,right,1,0.5428405000129715,None,,,,,,,,,,,,,,,,,,,,,,,,,,,,,,,,,,,,,,,,,,,,,,,sub-003,001,2025-01-24_13h21.07.220,NESC3137_N400_exp,2023.2.3,59.93953299573946,2025-01-24 13h22.10.655570 -0400,
,,,,,,,,,8,0,8,0,,,,,,,,,,,,,223.7616631000128,,,,,,,,,,,,,,,223.7471012000169,223.7616631000128,224.2682851999998,224.24569080001675,224.2457049000077,224.2682851999998,224.74611013001996,226.28091660002246,226.26469430001453,226.26470900001004,227.3983516000153,227.3983516000153,,,,,227.8167286000098,lightswitch,resources/stimuli/lightswitch_foil.wav,right,right,1,411.6332000121474,right,1,0.4116332000121474,None,,,,,,,,,,,,,,,,,,,,,,,,,,,,,,,,,,,,,,,,,,,,,,,sub-003,001,2025-01-24_13h21.07.220,NESC3137_N400_exp,2023.2.3,59.93953299573946,2025-01-24 13h22.10.655570 -0400,
,,,,,,,,,9,0,9,0,,,,,,,,,,,,,227.83240170002682,,,,,,,,,,,,,,,227.81788420001976,227.83240170002682,228.34222470002715,228.31678370002192,228.31679520002217,228.34222470002715,228.8168763300113,230.3521188000159,230.33524300000863,230.3352620000078,231.469424800016,231.469424800016,,,,,232.55478470001253,key,resources/stimuli/key.wav,left,left,1,1075.9963000018615,left,1,1.0759963000018615,None,,,,,,,,,,,,,,,,,,,,,,,,,,,,,,,,,,,,,,,,,,,,,,,sub-003,001,2025-01-24_13h21.07.220,NESC3137_N400_exp,2023.2.3,59.93953299573946,2025-01-24 13h22.10.655570 -0400,
,,,,,,,,,10,0,10,0,,,,,,,,,,,,,232.57023240000126,,,,,,,,,,,,,,,232.55613010001252,232.57023240000126,233.07723480000277,233.05448790002265,233.0545087000064,233.07723480000277,233.5546952300123,235.08952870001667,235.07348930000444,235.07350380002754,236.20718800000031,236.20718800000031,,,,,236.85892530001001,jacket,resources/stimuli/jacket_foil.wav,right,right,1,650.7534999982454,right,1,0.6507534999982454,None,,,,,,,,,,,,,,,,,,,,,,,,,,,,,,,,,,,,,,,,,,,,,,,sub-003,001,2025-01-24_13h21.07.220,NESC3137_N400_exp,2023.2.3,59.93953299573946,2025-01-24 13h22.10.655570 -0400,
,,,,,,,,,11,0,11,0,,,,,,,,,,,,,236.8744370000204,,,,,,,,,,,,,,,236.8601747000066,236.8744370000204,237.38265640000463,237.3590700000059,237.3590788000147,237.38265640000463,237.85885373000056,239.39372720001847,239.37814720001188,239.37815760000376,240.51148440001998,240.51148440001998,,,,,241.89689620002173,mushroom,resources/stimuli/mushroom_foil.wav,right,right,1,1370.0867999868933,right,1,1.3700867999868933,None,,,,,,,,,,,,,,,,,,,,,,,,,,,,,,,,,,,,,,,,,,,,,,,sub-003,001,2025-01-24_13h21.07.220,NESC3137_N400_exp,2023.2.3,59.93953299573946,2025-01-24 13h22.10.655570 -0400,
,,,,,,,,,12,0,12,0,,,,,,,,,,,,,241.91311410002527,,,,,,,,,,,,,,,241.89813810001942,241.91311410002527,242.42157950002002,242.397218099999,242.39723180001602,242.42157950002002,242.8974848300044,244.43230820001918,244.41584570001578,244.41585640000994,245.5502206000092,245.5502206000092,,,,,246.05179770002724,gloves,resources/stimuli/gloves.wav,left,left,1,491.99439998483285,left,1,0.49199439998483285,None,,,,,,,,,,,,,,,,,,,,,,,,,,,,,,,,,,,,,,,,,,,,,,,sub-003,001,2025-01-24_13h21.07.220,NESC3137_N400_exp,2023.2.3,59.93953299573946,2025-01-24 13h22.10.655570 -0400,
,,,,,,,,,13,0,13,0,,,,,,,,,,,,,246.06706820000545,,,,,,,,,,,,,,,246.05295500002103,246.06706820000545,246.57289880001917,246.55122250001295,246.55123200002708,246.57289880001917,247.05172673002235,248.5865260999999,248.57012530000065,248.57013620002544,249.704272700008,249.704272700008,,,,,250.10552480001934,plug,resources/stimuli/plug_foil.wav,right,right,1,386.1560999939684,right,1,0.3861560999939684,None,,,,,,,,,,,,,,,,,,,,,,,,,,,,,,,,,,,,,,,,,,,,,,,sub-003,001,2025-01-24_13h21.07.220,NESC3137_N400_exp,2023.2.3,59.93953299573946,2025-01-24 13h22.10.655570 -0400,
,,,,,,,,,14,0,14,0,,,,,,,,,,,,,250.1213067000208,,,,,,,,,,,,,,,250.1066470000078,250.1213067000208,250.62698200001614,250.60551670001587,250.60552690000623,250.62698200001614,251.10559153001523,252.64144790000864,252.6261995000241,252.62620960001368,253.75818330000038,253.75818330000038,,,,,254.14247060002526,book,resources/stimuli/book.wav,left,left,1,372.1507999871392,left,1,0.3721507999871392,None,,,,,,,,,,,,,,,,,,,,,,,,,,,,,,,,,,,,,,,,,,,,,,,sub-003,001,2025-01-24_13h21.07.220,NESC3137_N400_exp,2023.2.3,59.93953299573946,2025-01-24 13h22.10.655570 -0400,
,,,,,,,,,15,0,15,0,,,,,,,,,,,,,254.15865580001264,,,,,,,,,,,,,,,254.1440394000092,254.15865580001264,254.6645016000257,254.64316450001206,254.64317520000623,254.6645016000257,255.14381133000134,256.6776906000159,256.6617130000086,256.6617295000178,257.79537040001014,257.79537040001014,,,,,258.2968774000183,moon,resources/stimuli/moon.wav,left,left,1,486.29169998457655,left,1,0.48629169998457655,None,,,,,,,,,,,,,,,,,,,,,,,,,,,,,,,,,,,,,,,,,,,,,,,sub-003,001,2025-01-24_13h21.07.220,NESC3137_N400_exp,2023.2.3,59.93953299573946,2025-01-24 13h22.10.655570 -0400,
,,,,,,,,,16,0,16,0,,,,,,,,,,,,,258.31252860001405,,,,,,,,,,,,,,,258.2980170000228,258.31252860001405,258.82070620000013,258.7973560000246,258.7973648000043,258.82070620000013,259.29720933002534,260.8317839000083,260.81611040001735,260.81612900001346,261.94959610002115,261.94959610002115,,,,,262.25113780001993,leg,resources/stimuli/leg_foil.wav,right,right,1,285.10400000959635,right,1,0.28510400000959635,None,,,,,,,,,,,,,,,,,,,,,,,,,,,,,,,,,,,,,,,,,,,,,,,sub-003,001,2025-01-24_13h21.07.220,NESC3137_N400_exp,2023.2.3,59.93953299573946,2025-01-24 13h22.10.655570 -0400,
,,,,,,,,,17,0,17,0,,,,,,,,,,,,,262.26686320002773,,,,,,,,,,,,,,,262.2523710000096,262.26686320002773,262.7762294000131,262.7510385000205,262.7510540000221,262.7762294000131,263.2509510300064,264.7857143000001,264.76995620000525,264.7699760000105,265.9038431000081,265.9038431000081,,,,,266.3046890000114,cigarette,resources/stimuli/cigarette.wav,left,left,1,393.88590000453405,left,1,0.39388590000453405,None,,,,,,,,,,,,,,,,,,,,,,,,,,,,,,,,,,,,,,,,,,,,,,,sub-003,001,2025-01-24_13h21.07.220,NESC3137_N400_exp,2023.2.3,59.93953299573946,2025-01-24 13h22.10.655570 -0400,
,,,,,,,,,18,0,18,0,,,,,,,,,,,,,266.3209347000229,,,,,,,,,,,,,,,266.30597300000954,266.3209347000229,266.82741100000567,266.80506670000614,266.80507650002255,266.82741100000567,267.30527023002503,268.83987240001443,268.8241070000222,268.8241223000223,269.9578206000151,269.9578206000151,,,,,270.40880689999904,fish,resources/stimuli/fish_foil.wav,right,right,1,435.73810000089,right,1,0.43573810000088997,None,,,,,,,,,,,,,,,,,,,,,,,,,,,,,,,,,,,,,,,,,,,,,,,sub-003,001,2025-01-24_13h21.07.220,NESC3137_N400_exp,2023.2.3,59.93953299573946,2025-01-24 13h22.10.655570 -0400,
,,,,,,,,,19,0,19,0,,,,,,,,,,,,,270.42468700002064,,,,,,,,,,,,,,,270.41004020001856,270.42468700002064,270.9307766999991,270.90938590001315,270.90940090001095,270.9307766999991,271.4092413300008,272.9439263000095,272.927612200001,272.9276224000205,274.0632889000117,274.0632889000117,,,,,274.37968150002416,mountain,resources/stimuli/mountain.wav,left,left,1,314.4281000131741,left,1,0.3144281000131741,None,,,,,,,,,,,,,,,,,,,,,,,,,,,,,,,,,,,,,,,,,,,,,,,sub-003,001,2025-01-24_13h21.07.220,NESC3137_N400_exp,2023.2.3,59.93953299573946,2025-01-24 13h22.10.655570 -0400,
,,,,,,,,,20,0,20,0,,,,,,,,,,,,,274.39705220001633,,,,,,,,,,,,,,,274.3811929000076,274.39705220001633,274.90251230000285,274.8800288000202,274.88003860000754,274.90251230000285,275.3796704300097,276.91461860001436,276.8984098000219,276.89842080001836,278.0324451000197,278.0324451000197,,,,,278.4167219000228,button,resources/stimuli/button_foil.wav,right,right,1,369.00579999201,right,1,0.36900579999201,None,,,,,,,,,,,,,,,,,,,,,,,,,,,,,,,,,,,,,,,,,,,,,,,sub-003,001,2025-01-24_13h21.07.220,NESC3137_N400_exp,2023.2.3,59.93953299573946,2025-01-24 13h22.10.655570 -0400,
,,,,,,,,,21,0,21,0,,,,,,,,,,,,,278.4330175000068,,,,,,,,,,,,,,,278.4180174000212,278.4330175000068,278.9384604000079,278.91697460002615,278.9169838000089,278.9384604000079,279.4173854300228,280.9522588000109,280.93617290002294,280.9362046000024,282.0697215000109,282.0697215000109,,,,,282.4383251000254,tiger,resources/stimuli/tiger.wav,left,left,1,364.4016000034753,left,1,0.3644016000034753,None,,,,,,,,,,,,,,,,,,,,,,,,,,,,,,,,,,,,,,,,,,,,,,,sub-003,001,2025-01-24_13h21.07.220,NESC3137_N400_exp,2023.2.3,59.93953299573946,2025-01-24 13h22.10.655570 -0400,
,,,,,,,,,22,0,22,0,,,,,,,,,,,,,282.4548279000155,,,,,,,,,,,,,,,282.4395027999999,282.4548279000155,282.96137330000056,282.9382174000202,282.9382361000171,282.96137330000056,283.4380188300041,284.9725820000167,284.95647770000505,284.95649170002434,286.0906246000086,286.0906246000086,,,,,286.5751419000153,elephant,resources/stimuli/elephant_foil.wav,right,right,1,479.4825999997556,right,1,0.4794825999997556,None,,,,,,,,,,,,,,,,,,,,,,,,,,,,,,,,,,,,,,,,,,,,,,,sub-003,001,2025-01-24_13h21.07.220,NESC3137_N400_exp,2023.2.3,59.93953299573946,2025-01-24 13h22.10.655570 -0400,
,,,,,,,,,23,0,23,0,,,,,,,,,,,,,286.59099029999925,,,,,,,,,,,,,,,286.57645940000657,286.59099029999925,287.0956107000238,287.07502820002264,287.0750428000174,287.0956107000238,287.5752401300182,289.1099735000171,289.0938568000274,289.09387229999993,290.22779060000903,290.22779060000903,,,,,290.7458857000165,cake,resources/stimuli/cake.wav,left,left,1,501.9855999853462,left,1,0.5019855999853462,None,,,,,,,,,,,,,,,,,,,,,,,,,,,,,,,,,,,,,,,,,,,,,,,sub-003,001,2025-01-24_13h21.07.220,NESC3137_N400_exp,2023.2.3,59.93953299573946,2025-01-24 13h22.10.655570 -0400,
,,,,,,,,,24,0,24,0,,,,,,,,,,,,,290.76186350002536,,,,,,,,,,,,,,,290.7472368000017,290.76186350002536,291.2758317000116,291.24618260000716,291.2461926000251,291.2758317000116,291.74635563002664,293.2811481000099,293.26490200002445,293.2649172000238,294.39899980000337,294.39899980000337,,,,,294.90082700000494,giraffe,resources/stimuli/giraffe.wav,left,left,1,499.0067999751773,left,1,0.4990067999751773,None,,,,,,,,,,,,,,,,,,,,,,,,,,,,,,,,,,,,,,,,,,,,,,,sub-003,001,2025-01-24_13h21.07.220,NESC3137_N400_exp,2023.2.3,59.93953299573946,2025-01-24 13h22.10.655570 -0400,
,,,,,,,,,25,0,25,0,,,,,,,,,,,,,294.9159999000258,,,,,,,,,,,,,,,294.90198450000025,294.9159999000258,295.42354680001154,295.40041480000946,295.4004240000213,295.42354680001154,295.90059423001946,297.43497650002246,297.4192239000113,297.419243500015,298.55273270001635,298.55273270001635,,,,,299.5211326999997,tree,resources/stimuli/tree_foil.wav,right,right,1,953.6192000086885,right,1,0.9536192000086885,None,,,,,,,,,,,,,,,,,,,,,,,,,,,,,,,,,,,,,,,,,,,,,,,sub-003,001,2025-01-24_13h21.07.220,NESC3137_N400_exp,2023.2.3,59.93953299573946,2025-01-24 13h22.10.655570 -0400,
,,,,,,,,,26,0,26,0,,,,,,,,,,,,,299.537619300012,,,,,,,,,,,,,,,299.5222541000112,299.537619300012,300.042915900005,300.0214120000019,300.02142220002133,300.042915900005,300.5225676300237,302.056384800002,302.0406433000171,302.04065920002176,303.1739805000252,303.1739805000252,,,,,303.62546320000547,duck,resources/stimuli/duck.wav,left,left,1,443.4553000028245,left,1,0.4434553000028245,None,,,,,,,,,,,,,,,,,,,,,,,,,,,,,,,,,,,,,,,,,,,,,,,sub-003,001,2025-01-24_13h21.07.220,NESC3137_N400_exp,2023.2.3,59.93953299573946,2025-01-24 13h22.10.655570 -0400,
,,,,,,,,,27,0,27,0,,,,,,,,,,,,,303.6412108000077,,,,,,,,,,,,,,,303.6266341000155,303.6412108000077,304.14692020000075,304.12541120001697,304.12541950002196,304.14692020000075,304.6254963300074,306.16047360000084,306.1441183000279,306.14413350002724,307.27808490002644,307.27808490002644,,,,,307.780623300001,bear,resources/stimuli/bear_foil.wav,right,right,1,500.07629999890924,right,1,0.5000762999989092,None,,,,,,,,,,,,,,,,,,,,,,,,,,,,,,,,,,,,,,,,,,,,,,,sub-003,001,2025-01-24_13h21.07.220,NESC3137_N400_exp,2023.2.3,59.93953299573946,2025-01-24 13h22.10.655570 -0400,
,,,,,,,,,28,0,28,0,,,,,,,,,,,,,307.79554760002065,,,,,,,,,,,,,,,307.78175360002206,307.79554760002065,308.3009189000004,308.27973060001386,308.2797448000056,308.3009189000004,308.7966720300086,310.3147714000079,310.298437200021,310.29844740001136,311.43259080001735,311.43259080001735,,,,,311.8510249000101,tennisracket,resources/stimuli/tennisracket_foil.wav,right,right,1,401.2898000073619,right,1,0.4012898000073619,None,,,,,,,,,,,,,,,,,,,,,,,,,,,,,,,,,,,,,,,,,,,,,,,sub-003,001,2025-01-24_13h21.07.220,NESC3137_N400_exp,2023.2.3,59.93953299573946,2025-01-24 13h22.10.655570 -0400,
,,,,,,,,,29,0,29,0,,,,,,,,,,,,,311.8660447000002,,,,,,,,,,,,,,,311.8522857000062,311.8660447000002,312.372787100001,312.35065840001334,312.35066900000675,312.372787100001,312.8508640300191,314.38556680001784,314.3695885000052,314.3695998000039,315.50414550001733,315.50414550001733,,,,,315.85446890001185,gorilla,resources/stimuli/gorilla.wav,left,left,1,338.4276000142563,left,1,0.3384276000142563,None,,,,,,,,,,,,,,,,,,,,,,,,,,,,,,,,,,,,,,,,,,,,,,,sub-003,001,2025-01-24_13h21.07.220,NESC3137_N400_exp,2023.2.3,59.93953299573946,2025-01-24 13h22.10.655570 -0400,
,,,,,,,,,30,0,30,0,,,,,,,,,,,,,315.87037770001916,,,,,,,,,,,,,,,315.8556177999999,315.87037770001916,,316.35515500002657,316.3551731000189,316.37647640000796,316.8546979300212,318.3891914000269,318.373381900019,318.37339860000066,319.5082578000147,319.5082578000147,,,,,319.87531890001264,goat,resources/stimuli/goat_foil.wav,right,right,1,357.5760999810882,right,1,0.3575760999810882,None,,,,,,,,,,,,,,,,,,,,,,,,,,,,,,,,,,,,,,,,,,,,,,,sub-003,001,2025-01-24_13h21.07.220,NESC3137_N400_exp,2023.2.3,59.93953299573946,2025-01-24 13h22.10.655570 -0400,
,,,,,,,,,31,0,31,0,,,,,,,,,,,,,319.89077550001093,,,,,,,,,,,,,,,319.87658040001406,319.89077550001093,320.3985245000222,320.37491370001226,320.37492380000185,320.3985245000222,320.8752324300061,322.4099777000083,322.39394610002637,322.3939572000236,323.52764890002436,323.52764890002436,,,,,324.0141063000192,axe,resources/stimuli/axe_foil.wav,right,right,1,474.06420001061633,right,1,0.47406420001061633,None,,,,,,,,,,,,,,,,,,,,,,,,,,,,,,,,,,,,,,,,,,,,,,,sub-003,001,2025-01-24_13h21.07.220,NESC3137_N400_exp,2023.2.3,59.93953299573946,2025-01-24 13h22.10.655570 -0400,
,,,,,,,,,32,0,32,0,,,,,,,,,,,,,324.0284839000087,,,,,,,,,,,,,,,324.015602200001,324.0284839000087,324.535763300024,324.51345800000126,324.51347430000897,324.535763300024,325.0293185300019,326.5474021000264,326.5321700000204,326.532185100019,327.66548460000195,327.66548460000195,,,,,328.1165357000136,shoe,resources/stimuli/shoe_foil.wav,right,right,1,440.7173000217881,right,1,0.4407173000217881,None,,,,,,,,,,,,,,,,,,,,,,,,,,,,,,,,,,,,,,,,,,,,,,,sub-003,001,2025-01-24_13h21.07.220,NESC3137_N400_exp,2023.2.3,59.93953299573946,2025-01-24 13h22.10.655570 -0400,
,,,,,,,,,33,0,33,0,,,,,,,,,,,,,328.13229360000696,,,,,,,,,,,,,,,328.1177831000241,328.13229360000696,328.6398077000049,328.61670480002067,328.6167172000278,328.6398077000049,329.11706933001403,330.6519257000182,330.635348300013,330.6353648000222,331.76952750000055,331.76952750000055,,,,,332.1371511000034,harp,resources/stimuli/harp_foil.wav,right,right,1,360.3860999864992,right,1,0.3603860999864992,None,,,,,,,,,,,,,,,,,,,,,,,,,,,,,,,,,,,,,,,,,,,,,,,sub-003,001,2025-01-24_13h21.07.220,NESC3137_N400_exp,2023.2.3,59.93953299573946,2025-01-24 13h22.10.655570 -0400,
,,,,,,,,,34,0,34,0,,,,,,,,,,,,,332.15307820000453,,,,,,,,,,,,,,,332.13826140001765,332.15307820000453,332.6611223000218,332.63745060001384,332.6374637000263,332.6611223000218,333.1373977300012,334.67236570001114,334.655951200024,334.65596600002027,335.7900681000028,335.7900681000028,,,,,336.1745992000215,leaf,resources/stimuli/leaf.wav,left,left,1,379.17359999846667,left,1,0.37917359999846667,None,,,,,,,,,,,,,,,,,,,,,,,,,,,,,,,,,,,,,,,,,,,,,,,sub-003,001,2025-01-24_13h21.07.220,NESC3137_N400_exp,2023.2.3,59.93953299573946,2025-01-24 13h22.10.655570 -0400,
,,,,,,,,,35,0,35,0,,,,,,,,,,,,,336.19041380001,,,,,,,,,,,,,,,336.1759003000043,336.19041380001,336.69597440000507,336.6746418000257,336.67465720002656,336.69597440000507,337.17465553002546,338.70957600002293,338.6942647000251,338.69427490001544,339.8276878000179,339.8276878000179,,,,,340.31213430000935,sandwich,resources/stimuli/sandwich_foil.wav,right,right,1,469.8422999936156,right,1,0.4698422999936156,None,,,,,,,,,,,,,,,,,,,,,,,,,,,,,,,,,,,,,,,,,,,,,,,sub-003,001,2025-01-24_13h21.07.220,NESC3137_N400_exp,2023.2.3,59.93953299573946,2025-01-24 13h22.10.655570 -0400,
,,,,,,,,,36,0,36,0,,,,,,,,,,,,,340.328164800012,,,,,,,,,,,,,,,340.31326880000415,340.328164800012,340.833368600026,340.8120596000226,340.8120726000052,340.833368600026,341.312212730007,342.8472945000103,342.83191990002524,342.8319343000185,343.96503479999956,343.96503479999956,,,,,344.45029420001083,kangaroo,resources/stimuli/kangaroo.wav,left,left,1,468.8020999892615,left,1,0.4688020999892615,None,,,,,,,,,,,,,,,,,,,,,,,,,,,,,,,,,,,,,,,,,,,,,,,sub-003,001,2025-01-24_13h21.07.220,NESC3137_N400_exp,2023.2.3,59.93953299573946,2025-01-24 13h22.10.655570 -0400,
,,,,,,,,,37,0,37,0,,,,,,,,,,,,,344.4653483000002,,,,,,,,,,,,,,,344.4514285000041,344.4653483000002,344.97101920002024,344.94940960002714,344.94942040002206,344.97101920002024,345.4667131300142,346.98472310000216,346.9687291000155,346.96874160002335,348.1026064000034,348.1026064000034,,,,,348.5036780000082,strawberry,resources/stimuli/strawberry_foil.wav,right,right,1,387.2306999983266,right,1,0.3872306999983266,None,,,,,,,,,,,,,,,,,,,,,,,,,,,,,,,,,,,,,,,,,,,,,,,sub-003,001,2025-01-24_13h21.07.220,NESC3137_N400_exp,2023.2.3,59.93953299573946,2025-01-24 13h22.10.655570 -0400,
,,,,,,,,,38,0,38,0,,,,,,,,,,,,,348.5193497000146,,,,,,,,,,,,,,,348.50519540000823,348.5193497000146,349.0270283000136,349.0039487000031,349.0039665000222,349.0270283000136,349.5050557300041,351.0388278000173,351.02269850001903,351.0227102000208,352.15928810002515,352.15928810002515,,,,,352.59115070002736,cannon,resources/stimuli/cannon.wav,left,left,1,426.05450001428835,left,1,0.42605450001428835,None,,,,,,,,,,,,,,,,,,,,,,,,,,,,,,,,,,,,,,,,,,,,,,,sub-003,001,2025-01-24_13h21.07.220,NESC3137_N400_exp,2023.2.3,59.93953299573946,2025-01-24 13h22.10.655570 -0400,
,,,,,,,,,39,0,39,0,,,,,,,,,,,,,352.60795530001633,,,,,,,,,,,,,,,352.59229660002165,352.60795530001633,353.11649600000237,353.0915231000108,353.0915319000196,353.11649600000237,353.591413530003,355.1259412000072,355.10972780000884,355.1097378000268,356.24390710002626,356.24390710002626,,,,,356.6971743000031,peach,resources/stimuli/peach_foil.wav,right,right,1,438.6040999961551,right,1,0.43860409999615513,None,,,,,,,,,,,,,,,,,,,,,,,,,,,,,,,,,,,,,,,,,,,,,,,sub-003,001,2025-01-24_13h21.07.220,NESC3137_N400_exp,2023.2.3,59.93953299573946,2025-01-24 13h22.10.655570 -0400,
,,,,,,,,,40,0,40,0,,,,,,,,,,,,,356.71083390002605,,,,,,,,,,,,,,,356.6982859999989,356.71083390002605,357.21911910001654,357.19542160001583,357.1954313000024,357.21911910001654,357.711907330004,359.2303392000031,359.214301,359.214314700017,360.34835440001916,360.34835440001916,,,,,360.68272040001466,ring,resources/stimuli/ring.wav,left,left,1,325.20069999736734,left,1,0.32520069999736734,None,,,,,,,,,,,,,,,,,,,,,,,,,,,,,,,,,,,,,,,,,,,,,,,sub-003,001,2025-01-24_13h21.07.220,NESC3137_N400_exp,2023.2.3,59.93953299573946,2025-01-24 13h22.10.655570 -0400,
,,,,,,,,,41,0,41,0,,,,,,,,,,,,,360.69841400001314,,,,,,,,,,,,,,,360.683906100021,360.69841400001314,361.20401280000806,361.18274350001593,361.18275659999927,361.20401280000806,361.68285953000884,363.2176134000183,363.2014427000249,363.2014549000014,364.3356408000109,364.3356408000109,,,,,364.7208007000154,lettuce,resources/stimuli/lettuce.wav,left,left,1,378.43330000760034,left,1,0.37843330000760034,None,,,,,,,,,,,,,,,,,,,,,,,,,,,,,,,,,,,,,,,,,,,,,,,sub-003,001,2025-01-24_13h21.07.220,NESC3137_N400_exp,2023.2.3,59.93953299573946,2025-01-24 13h22.10.655570 -0400,
,,,,,,,,,42,0,42,0,,,,,,,,,,,,,364.73576730000786,,,,,,,,,,,,,,,364.7220997000113,364.73576730000786,365.2429058000271,365.22012630000245,365.22013980001793,365.2429058000271,365.73832323001113,367.25471720000496,367.2385930000164,367.2386057000258,368.37259350001113,368.37259350001113,,,,,368.757102500007,salt,resources/stimuli/salt.wav,left,left,1,380.9774999972433,left,1,0.3809774999972433,None,,,,,,,,,,,,,,,,,,,,,,,,,,,,,,,,,,,,,,,,,,,,,,,sub-003,001,2025-01-24_13h21.07.220,NESC3137_N400_exp,2023.2.3,59.93953299573946,2025-01-24 13h22.10.655570 -0400,
,,,,,,,,,43,0,43,0,,,,,,,,,,,,,368.77289330001804,,,,,,,,,,,,,,,368.75829520000843,368.77289330001804,369.27855960000306,369.2571194000193,369.2571285000013,369.27855960000306,369.7580370300042,371.2927569000167,371.27570070000365,371.2757109000231,372.40973030001624,372.40973030001624,,,,,372.76107020000927,bread,resources/stimuli/bread.wav,left,left,1,336.03320000111125,left,1,0.33603320000111125,None,,,,,,,,,,,,,,,,,,,,,,,,,,,,,,,,,,,,,,,,,,,,,,,sub-003,001,2025-01-24_13h21.07.220,NESC3137_N400_exp,2023.2.3,59.93953299573946,2025-01-24 13h22.10.655570 -0400,
,,,,,,,,,44,0,44,0,0,0,0,0,,,,,,,,,376.9646577000094,,,,,,,,,,,,,,,372.7627674000105,372.7771404000232,373.2812524000183,373.26114760001656,373.26115820000996,373.2812524000183,373.761232730007,375.2962854000216,375.27996690000873,375.2799820000073,376.41411930002505,376.41411930002505,,,,,376.94831200002227,necklace,resources/stimuli/necklace_foil.wav,right,right,1,531.2128000077792,right,1,0.5312128000077792,None,376.94925720000174,376.9646577000094,406.9622606000048,406.9622606000048,406.97802750000847,410.0821092000115,space,3.1108314000011887,None,,,,,,,,,,,,,,,,,,,,,,,,,,,,,,,,,,,,,,sub-003,001,2025-01-24_13h21.07.220,NESC3137_N400_exp,2023.2.3,59.93953299573946,2025-01-24 13h22.10.655570 -0400,
,,,,,,,,,44,0,44,0,,,,,,,,,,,,,,,,,,,,,,,,,,,,,,,,,,,,,,,,,,,,,,,,,,,,,,,,,,,,,,,,,,,,,,,,,,,,,,,,,,,,,,,,,,,,,,,,,,,,,sub-003,001,2025-01-24_13h21.07.220,NESC3137_N400_exp,2023.2.3,59.93953299573946,2025-01-24 13h22.10.655570 -0400,
,,,,,,,,,45,0,45,0,,,,,,,,,,,,,410.09772420002264,,,,,,,,,,,,,,,410.08274910002365,410.09772420002264,,410.58255220000865,410.5825652000203,410.60665770000196,411.0818099300144,412.61672170000384,412.6008000000147,412.6008155000163,413.73441500001354,413.73441500001354,,,,,414.57004510000115,basket,resources/stimuli/basket_foil.wav,right,right,1,819.568300008541,right,1,0.819568300008541,None,,,,,,,,,,,,,,,,,,,,,,,,,,,,,,,,,,,,,,,,,,,,,,,sub-003,001,2025-01-24_13h21.07.220,NESC3137_N400_exp,2023.2.3,59.93953299573946,2025-01-24 13h22.10.655570 -0400,
,,,,,,,,,46,0,46,0,,,,,,,,,,,,,414.5855370000063,,,,,,,,,,,,,,,414.5711335000233,414.5855370000063,415.09422490000725,415.0698867000174,415.06989710000926,415.09422490000725,415.5696800300269,417.1044833000051,417.08868939999957,417.08870880000177,418.22240080000483,418.22240080000483,,,,,418.625091599999,hair,resources/stimuli/hair_foil.wav,right,right,1,387.0841999887489,right,1,0.3870841999887489,None,,,,,,,,,,,,,,,,,,,,,,,,,,,,,,,,,,,,,,,,,,,,,,,sub-003,001,2025-01-24_13h21.07.220,NESC3137_N400_exp,2023.2.3,59.93953299573946,2025-01-24 13h22.10.655570 -0400,
,,,,,,,,,47,0,47,0,,,,,,,,,,,,,418.63931779999984,,,,,,,,,,,,,,,418.62624620000133,418.63931779999984,419.1462081000209,419.1241638000065,419.1241827000049,419.1462081000209,419.6406898300105,421.1585433,421.1432100000093,421.1432221000141,422.27626959999907,422.27626959999907,,,,,422.6773439000244,horse,resources/stimuli/horse_foil.wav,right,right,1,397.6709000125993,right,1,0.3976709000125993,None,,,,,,,,,,,,,,,,,,,,,,,,,,,,,,,,,,,,,,,,,,,,,,,sub-003,001,2025-01-24_13h21.07.220,NESC3137_N400_exp,2023.2.3,59.93953299573946,2025-01-24 13h22.10.655570 -0400,
,,,,,,,,,48,0,48,0,,,,,,,,,,,,,422.6936955000274,,,,,,,,,,,,,,,422.67854560000706,422.6936955000274,423.1999018000206,423.17843150001136,423.1784409000247,423.1999018000206,423.67793203000326,425.21415020001587,425.1963637000008,425.19637910000165,426.33241820000694,426.33241820000694,,,,,426.6814608000277,cat,resources/stimuli/cat_foil.wav,right,right,1,341.2430000025779,right,1,0.3412430000025779,None,,,,,,,,,,,,,,,,,,,,,,,,,,,,,,,,,,,,,,,,,,,,,,,sub-003,001,2025-01-24_13h21.07.220,NESC3137_N400_exp,2023.2.3,59.93953299573946,2025-01-24 13h22.10.655570 -0400,
,,,,,,,,,49,0,49,0,,,,,,,,,,,,,426.69761630002176,,,,,,,,,,,,,,,426.6825320000062,426.69761630002176,427.20291400002316,427.1816251000273,427.1816370000015,427.20291400002316,427.68171543002825,429.2168303000217,429.20037930001854,429.20039090001956,430.3346488000243,430.3346488000243,,,,,430.66922680000425,fryingpan,resources/stimuli/fryingpan_foil.wav,right,right,1,322.5984000018798,right,1,0.3225984000018798,None,,,,,,,,,,,,,,,,,,,,,,,,,,,,,,,,,,,,,,,,,,,,,,,sub-003,001,2025-01-24_13h21.07.220,NESC3137_N400_exp,2023.2.3,59.93953299573946,2025-01-24 13h22.10.655570 -0400,
,,,,,,,,,50,0,50,0,,,,,,,,,,,,,430.68480710001313,,,,,,,,,,,,,,,430.67050750000635,430.68480710001313,431.1931113000028,431.1691882000014,431.1692001000047,431.1931113000028,431.6694842300261,433.2052214000141,433.18772260000696,433.1877336000034,434.3217182000226,434.3217182000226,,,,,434.60639820000506,wrench,resources/stimuli/wrench.wav,left,left,1,280.2058999950532,left,1,0.2802058999950532,None,,,,,,,,,,,,,,,,,,,,,,,,,,,,,,,,,,,,,,,,,,,,,,,sub-003,001,2025-01-24_13h21.07.220,NESC3137_N400_exp,2023.2.3,59.93953299573946,2025-01-24 13h22.10.655570 -0400,
,,,,,,,,,51,0,51,0,,,,,,,,,,,,,434.6235353000229,,,,,,,,,,,,,,,434.6080079000094,434.6235353000229,435.12837109999964,435.10636050000903,435.10637340001995,435.12837109999964,435.60747543001196,437.14132160000736,437.1247775000229,437.1247933000268,438.25883430000977,438.25883430000977,,,,,438.7774050000007,squirrel,resources/stimuli/squirrel_foil.wav,right,right,1,503.23699999717064,right,1,0.5032369999971706,None,,,,,,,,,,,,,,,,,,,,,,,,,,,,,,,,,,,,,,,,,,,,,,,sub-003,001,2025-01-24_13h21.07.220,NESC3137_N400_exp,2023.2.3,59.93953299573946,2025-01-24 13h22.10.655570 -0400,
,,,,,,,,,52,0,52,0,,,,,,,,,,,,,438.79273470002227,,,,,,,,,,,,,,,438.77854389999993,438.79273470002227,439.2988431000267,439.27700700002606,439.27702000000863,439.2988431000267,439.77707233001126,441.31191830002354,441.2964628000045,441.29647440000554,442.42996450001374,442.42996450001374,,,,,442.83104950000416,pear,resources/stimuli/pear_foil.wav,right,right,1,387.25309999426827,right,1,0.38725309999426827,None,,,,,,,,,,,,,,,,,,,,,,,,,,,,,,,,,,,,,,,,,,,,,,,sub-003,001,2025-01-24_13h21.07.220,NESC3137_N400_exp,2023.2.3,59.93953299573946,2025-01-24 13h22.10.655570 -0400,
,,,,,,,,,53,0,53,0,,,,,,,,,,,,,442.8469132000173,,,,,,,,,,,,,,,442.832298000023,442.8469132000173,443.3538259000052,443.3317092000216,443.3317298000038,443.3538259000052,443.83135083001105,445.3660297000024,445.3504615999991,445.3504777000053,446.48384860000806,446.48384860000806,,,,,446.86884220002685,seahorse,resources/stimuli/seahorse.wav,left,left,1,382.58599999244325,left,1,0.38258599999244325,None,,,,,,,,,,,,,,,,,,,,,,,,,,,,,,,,,,,,,,,,,,,,,,,sub-003,001,2025-01-24_13h21.07.220,NESC3137_N400_exp,2023.2.3,59.93953299573946,2025-01-24 13h22.10.655570 -0400,
,,,,,,,,,54,0,54,0,,,,,,,,,,,,,446.88417660002597,,,,,,,,,,,,,,,446.870201600017,446.88417660002597,447.3911163000157,447.36851360002765,447.3685289999994,447.3911163000157,447.8856229300203,449.4033518000215,449.3874641000002,449.38748110001325,450.52139780001016,450.52139780001016,,,,,450.90584890000173,eagle,resources/stimuli/eagle.wav,left,left,1,376.0991000162903,left,1,0.3760991000162903,None,,,,,,,,,,,,,,,,,,,,,,,,,,,,,,,,,,,,,,,,,,,,,,,sub-003,001,2025-01-24_13h21.07.220,NESC3137_N400_exp,2023.2.3,59.93953299573946,2025-01-24 13h22.10.655570 -0400,
,,,,,,,,,55,0,55,0,,,,,,,,,,,,,450.92185940002673,,,,,,,,,,,,,,,450.90700740000466,450.92185940002673,451.4272826000233,451.40643020000425,451.40644500000053,451.4272826000233,451.9062269300106,453.4409341000137,453.4256570000143,453.42566630002693,454.5587671000103,454.5587671000103,,,,,454.9930056000012,table,resources/stimuli/table_foil.wav,right,right,1,427.5920999934897,right,1,0.4275920999934897,None,,,,,,,,,,,,,,,,,,,,,,,,,,,,,,,,,,,,,,,,,,,,,,,sub-003,001,2025-01-24_13h21.07.220,NESC3137_N400_exp,2023.2.3,59.93953299573946,2025-01-24 13h22.10.655570 -0400,
,,,,,,,,,56,0,56,0,,,,,,,,,,,,,455.008905900002,,,,,,,,,,,,,,,454.99422610001056,455.008905900002,,455.49384550002287,455.49385769999935,455.5159122000041,455.99491473002706,457.5282669000153,457.5123210000165,457.51233360002516,458.6461656000174,458.6461656000174,,,,,459.13061530000414,fence,resources/stimuli/fence.wav,left,left,1,467.6665000151843,left,1,0.4676665000151843,None,,,,,,,,,,,,,,,,,,,,,,,,,,,,,,,,,,,,,,,,,,,,,,,sub-003,001,2025-01-24_13h21.07.220,NESC3137_N400_exp,2023.2.3,59.93953299573946,2025-01-24 13h22.10.655570 -0400,
,,,,,,,,,57,0,57,0,,,,,,,,,,,,,459.1471097000176,,,,,,,,,,,,,,,459.13205580000067,459.1471097000176,459.6539474000165,459.6307929000177,459.6308055000263,459.6539474000165,460.13071583002454,461.6659135000082,461.6493601000111,461.6493793000118,462.7844398000161,462.7844398000161,,,,,463.25146270002006,grapes,resources/stimuli/grapes.wav,left,left,1,465.1888000080362,left,1,0.4651888000080362,None,,,,,,,,,,,,,,,,,,,,,,,,,,,,,,,,,,,,,,,,,,,,,,,sub-003,001,2025-01-24_13h21.07.220,NESC3137_N400_exp,2023.2.3,59.93953299573946,2025-01-24 13h22.10.655570 -0400,
,,,,,,,,,58,0,58,0,,,,,,,,,,,,,463.267493500025,,,,,,,,,,,,,,,463.2529267000209,463.267493500025,463.7741676000005,463.7515213000006,463.75153210002463,463.7741676000005,464.25151673000653,465.78673200000776,465.77056160001666,465.7705796000082,466.9041941000032,466.9041941000032,,,,,467.5225757000153,dresser,resources/stimuli/dresser.wav,left,left,1,617.2135999950115,left,1,0.6172135999950115,None,,,,,,,,,,,,,,,,,,,,,,,,,,,,,,,,,,,,,,,,,,,,,,,sub-003,001,2025-01-24_13h21.07.220,NESC3137_N400_exp,2023.2.3,59.93953299573946,2025-01-24 13h22.10.655570 -0400,
,,,,,,,,,59,0,59,0,,,,,,,,,,,,,467.53840060002403,,,,,,,,,,,,,,,467.52394270000514,467.53840060002403,468.0435705000127,468.02278410000145,468.02280040000915,468.0435705000127,468.5227932300244,470.0579185000097,470.04103770002257,470.0410536000272,471.17507920000935,471.17507920000935,,,,,471.5594714000181,star,resources/stimuli/star_foil.wav,right,right,1,378.845100000035,right,1,0.378845100000035,None,,,,,,,,,,,,,,,,,,,,,,,,,,,,,,,,,,,,,,,,,,,,,,,sub-003,001,2025-01-24_13h21.07.220,NESC3137_N400_exp,2023.2.3,59.93953299573946,2025-01-24 13h22.10.655570 -0400,
,,,,,,,,,60,0,60,0,,,,,,,,,,,,,471.5756863000279,,,,,,,,,,,,,,,471.5610926000227,471.5756863000279,472.08317440000246,472.05990900000324,472.0599233000248,472.08317440000246,472.56014693002214,474.0948586000013,474.07852930002264,474.07854140002746,475.21251540002413,475.21251540002413,,,,,475.7307901000022,arm,resources/stimuli/arm.wav,left,left,1,500.9845000167843,left,1,0.5009845000167843,None,,,,,,,,,,,,,,,,,,,,,,,,,,,,,,,,,,,,,,,,,,,,,,,sub-003,001,2025-01-24_13h21.07.220,NESC3137_N400_exp,2023.2.3,59.93953299573946,2025-01-24 13h22.10.655570 -0400,
,,,,,,,,,61,0,61,0,,,,,,,,,,,,,475.74632100001327,,,,,,,,,,,,,,,475.7322094000119,475.74632100001327,476.25526420000824,476.23062539999955,476.23063780000666,476.25526420000824,476.73203713002147,478.2658783000079,478.2496642000042,478.2496753000014,479.3835475000087,479.3835475000087,,,,,479.75149950000923,monkey,resources/stimuli/monkey.wav,left,left,1,355.119999992894,left,1,0.355119999992894,None,,,,,,,,,,,,,,,,,,,,,,,,,,,,,,,,,,,,,,,,,,,,,,,sub-003,001,2025-01-24_13h21.07.220,NESC3137_N400_exp,2023.2.3,59.93953299573946,2025-01-24 13h22.10.655570 -0400,
,,,,,,,,,62,0,62,0,,,,,,,,,,,,,479.76703310001176,,,,,,,,,,,,,,,479.75292380002793,479.76703310001176,480.2752571000019,480.25141070000245,480.2514245000202,480.2752571000019,480.7516021300165,482.2865029000095,482.2700282000005,482.2700482000073,483.4040366000263,483.4040366000263,,,,,483.77216500000213,pineapple,resources/stimuli/pineapple_foil.wav,right,right,1,365.6172000046354,right,1,0.3656172000046354,None,,,,,,,,,,,,,,,,,,,,,,,,,,,,,,,,,,,,,,,,,,,,,,,sub-003,001,2025-01-24_13h21.07.220,NESC3137_N400_exp,2023.2.3,59.93953299573946,2025-01-24 13h22.10.655570 -0400,
,,,,,,,,,63,0,63,0,,,,,,,,,,,,,483.7886196000036,,,,,,,,,,,,,,,483.7733826000185,483.7886196000036,484.294034999999,484.2720373000193,484.27204930002335,484.294034999999,484.77244633000225,486.3068895000033,486.2909763000207,486.2909864000103,487.4250838000153,487.4250838000153,,,,,487.7430154000176,sheep,resources/stimuli/sheep.wav,left,left,1,312.91770000825636,left,1,0.31291770000825636,None,,,,,,,,,,,,,,,,,,,,,,,,,,,,,,,,,,,,,,,,,,,,,,,sub-003,001,2025-01-24_13h21.07.220,NESC3137_N400_exp,2023.2.3,59.93953299573946,2025-01-24 13h22.10.655570 -0400,
,,,,,,,,,64,0,64,0,,,,,,,,,,,,,487.75845090000075,,,,,,,,,,,,,,,487.7441874000069,487.75845090000075,488.26586290000705,488.24304350002785,488.2430576000188,488.26586290000705,488.74485573001436,490.2774618000258,490.26135120002436,490.2613669000275,491.39597380001214,491.39597380001214,,,,,491.7631433000206,glasses,resources/stimuli/glasses_foil.wav,right,right,1,351.41529998509213,right,1,0.35141529998509213,None,,,,,,,,,,,,,,,,,,,,,,,,,,,,,,,,,,,,,,,,,,,,,,,sub-003,001,2025-01-24_13h21.07.220,NESC3137_N400_exp,2023.2.3,59.93953299573946,2025-01-24 13h22.10.655570 -0400,
,,,,,,,,,65,0,65,0,,,,,,,,,,,,,491.7792865000083,,,,,,,,,,,,,,,491.7642853000143,491.7792865000083,492.28667720002704,492.2631668000249,492.2631744000246,492.28667720002704,492.7635954300116,494.2981264000118,494.2821910000057,494.2822008000221,495.4160081000009,495.4160081000009,,,,,495.81758130001253,hanger,resources/stimuli/hanger.wav,left,left,1,385.22500000544824,left,1,0.38522500000544824,None,,,,,,,,,,,,,,,,,,,,,,,,,,,,,,,,,,,,,,,,,,,,,,,sub-003,001,2025-01-24_13h21.07.220,NESC3137_N400_exp,2023.2.3,59.93953299573946,2025-01-24 13h22.10.655570 -0400,
,,,,,,,,,66,0,66,0,,,,,,,,,,,,,495.83305750001455,,,,,,,,,,,,,,,495.8189130000246,495.83305750001455,,496.31863950000843,496.31865440000547,496.3394588000083,496.81774313000494,498.35224460001336,498.3366128000198,498.3366299000045,499.47000310002477,499.47000310002477,,,,,499.9553583000088,nail,resources/stimuli/nail_foil.wav,right,right,1,475.66939998068847,right,1,0.47566939998068847,None,,,,,,,,,,,,,,,,,,,,,,,,,,,,,,,,,,,,,,,,,,,,,,,sub-003,001,2025-01-24_13h21.07.220,NESC3137_N400_exp,2023.2.3,59.93953299573946,2025-01-24 13h22.10.655570 -0400,
,,,,,,,,,67,0,67,0,,,,,,,,,,,,,499.9706568000256,,,,,,,,,,,,,,,499.9566284000175,499.9706568000256,500.4774207000155,500.4551146000158,500.4551320000028,500.4774207000155,500.97154713000634,502.49145180001506,502.47847460000776,502.4784848000272,503.60756070000934,503.60756070000934,,,,,503.9586964000191,suitcase,resources/stimuli/suitcase_foil.wav,right,right,1,345.83519998705015,right,1,0.34583519998705015,None,,,,,,,,,,,,,,,,,,,,,,,,,,,,,,,,,,,,,,,,,,,,,,,sub-003,001,2025-01-24_13h21.07.220,NESC3137_N400_exp,2023.2.3,59.93953299573946,2025-01-24 13h22.10.655570 -0400,
,,,,,,,,,68,0,68,0,,,,,,,,,,,,,503.9748658000026,,,,,,,,,,,,,,,503.9597634000238,503.9748658000026,504.48002670001006,504.45901250001043,504.4590252000198,504.48002670001006,504.9592238300014,506.49366860001464,506.4777835000132,506.477798900014,507.61151450002217,507.61151450002217,,,,,508.04601070002536,banana,resources/stimuli/banana.wav,left,left,1,421.9623999961186,left,1,0.4219623999961186,None,,,,,,,,,,,,,,,,,,,,,,,,,,,,,,,,,,,,,,,,,,,,,,,sub-003,001,2025-01-24_13h21.07.220,NESC3137_N400_exp,2023.2.3,59.93953299573946,2025-01-24 13h22.10.655570 -0400,
,,,,,,,,,69,0,69,0,,,,,,,,,,,,,508.062287400011,,,,,,,,,,,,,,,508.0471743000089,508.062287400011,508.56892020002124,508.54668060000404,508.54669170000125,508.56892020002124,509.04775673000256,510.5813663000008,510.56644910000614,510.56645990000106,511.6991463000013,511.6991463000013,,,,,512.1670838000136,hammer,resources/stimuli/hammer_foil.wav,right,right,1,453.9556999807246,right,1,0.4539556999807246,None,,,,,,,,,,,,,,,,,,,,,,,,,,,,,,,,,,,,,,,,,,,,,,,sub-003,001,2025-01-24_13h21.07.220,NESC3137_N400_exp,2023.2.3,59.93953299573946,2025-01-24 13h22.10.655570 -0400,
,,,,,,,,,70,0,70,0,,,,,,,,,,,,,512.1826662000094,,,,,,,,,,,,,,,512.1682545000222,512.1826662000094,512.6889191000082,512.6672378000221,512.66725150001,512.6889191000082,513.1672347300104,514.7030042000115,514.6856982000172,514.6857152000011,515.8197071000177,515.8197071000177,,,,,516.2050102000067,pot,resources/stimuli/pot_foil.wav,right,right,1,382.25039999815635,right,1,0.38225039999815635,None,,,,,,,,,,,,,,,,,,,,,,,,,,,,,,,,,,,,,,,,,,,,,,,sub-003,001,2025-01-24_13h21.07.220,NESC3137_N400_exp,2023.2.3,59.93953299573946,2025-01-24 13h22.10.655570 -0400,
,,,,,,,,,71,0,71,0,,,,,,,,,,,,,516.2203204000252,,,,,,,,,,,,,,,516.2062008000212,516.2203204000252,516.7267301000247,516.7043976999994,516.7044111000141,516.7267301000247,517.2213689300173,518.7392634999997,518.723914000002,518.7239253000007,519.8574621000153,519.8574621000153,,,,,520.2091132000205,cloud,resources/stimuli/cloud.wav,left,left,1,343.9751999976579,left,1,0.3439751999976579,None,,,,,,,,,,,,,,,,,,,,,,,,,,,,,,,,,,,,,,,,,,,,,,,sub-003,001,2025-01-24_13h21.07.220,NESC3137_N400_exp,2023.2.3,59.93953299573946,2025-01-24 13h22.10.655570 -0400,
,,,,,,,,,72,0,72,0,,,,,,,,,,,,,520.224142400024,,,,,,,,,,,,,,,520.2105487000081,520.224142400024,520.7298154000018,520.7083645000239,520.7083750000165,520.7298154000018,521.2253765300032,522.7434628000192,522.7270600000047,522.7270753000048,523.861358300026,523.861358300026,,,,,524.2455288000056,alligator,resources/stimuli/alligator_foil.wav,right,right,1,380.05550001980737,right,1,0.38005550001980737,None,,,,,,,,,,,,,,,,,,,,,,,,,,,,,,,,,,,,,,,,,,,,,,,sub-003,001,2025-01-24_13h21.07.220,NESC3137_N400_exp,2023.2.3,59.93953299573946,2025-01-24 13h22.10.655570 -0400,
,,,,,,,,,73,0,73,0,,,,,,,,,,,,,524.2614613000187,,,,,,,,,,,,,,,524.2471344000078,524.2614613000187,524.7689730999991,524.7458298999991,524.745839900017,524.7689730999991,525.2460846300004,526.7806437000108,526.7647239000071,526.7647349000035,527.8983576000028,527.8983576000028,,,,,528.2830106000183,doorknob,resources/stimuli/doorknob.wav,left,left,1,383.599900000263,left,1,0.383599900000263,None,,,,,,,,,,,,,,,,,,,,,,,,,,,,,,,,,,,,,,,,,,,,,,,sub-003,001,2025-01-24_13h21.07.220,NESC3137_N400_exp,2023.2.3,59.93953299573946,2025-01-24 13h22.10.655570 -0400,
,,,,,,,,,74,0,74,0,,,,,,,,,,,,,528.298810200009,,,,,,,,,,,,,,,528.2841396000003,528.298810200009,528.8056648000202,528.783479900012,528.7834948000091,528.8056648000202,529.283410230017,530.8180214000167,530.802090000012,530.8021083000058,531.9360400000005,531.9360400000005,,,,,532.3371521000226,skunk,resources/stimuli/skunk_foil.wav,right,right,1,393.9416000212077,right,1,0.3939416000212077,None,,,,,,,,,,,,,,,,,,,,,,,,,,,,,,,,,,,,,,,,,,,,,,,sub-003,001,2025-01-24_13h21.07.220,NESC3137_N400_exp,2023.2.3,59.93953299573946,2025-01-24 13h22.10.655570 -0400,
