Word,setup_loop.thisRepN,setup_loop.thisTrialN,setup_loop.thisN,setup_loop.thisIndex,shuffle_loop.thisRepN,shuffle_loop.thisTrialN,shuffle_loop.thisN,shuffle_loop.thisIndex,trials_2.thisRepN,trials_2.thisTrialN,trials_2.thisN,trials_2.thisIndex,trialsBreak2.thisRepN,trialsBreak2.thisTrialN,trialsBreak2.thisN,trialsBreak2.thisIndex,trials.thisRepN,trials.thisTrialN,trials.thisN,trials.thisIndex,trialsBreak.thisRepN,trialsBreak.thisTrialN,trialsBreak.thisN,trialsBreak.thisIndex,thisRow.t,notes,LSL_Stream.started,LSL_Stream.stopped,setup.started,setup.stopped,shuffle_stimuli.started,shuffle_stimuli.stopped,Instructions1.started,imageInstruct1.started,key_resp_Instruct1.started,Instructions1.stopped,key_resp_Instruct1.keys,key_resp_Instruct1.rt,key_resp_Instruct1.duration,fixation_2.started,cross_2.started,cross_2.stopped,fixation_2.stopped,stimuli_prez_2.started,audioPrez2.started,imagePrez2.started,imagePrez2.stopped,stimuli_prez_2.stopped,response_2.started,image_resp_p2.started,p2_resp_stim.started,response_2.stopped,Image2,Audio2,response_p2,corchoice_p2,Trial_Score_p2,Trial_RT_p2,p2_resp_stim.keys,p2_resp_stim.corr,p2_resp_stim.rt,p2_resp_stim.duration,checkpoint.started,imageBreak.started,imageCont.started,key_break.started,imageBreak.stopped,checkpoint.stopped,key_break.keys,key_break.rt,key_break.duration,Instructions2.started,imageInstruct1_2.started,key_resp_Instruct1_2.started,Instructions2.stopped,key_resp_Instruct1_2.keys,key_resp_Instruct1_2.rt,key_resp_Instruct1_2.duration,fixation.started,cross.started,cross.stopped,fixation.stopped,stimuli_prez_1.started,imagePrez1.started,audioPrez1.started,imagePrez1.stopped,stimuli_prez_1.stopped,response.started,image_resp_p1.started,p1_resp_stim.started,response.stopped,Image,Audio,response_p1,corchoice_p1,Trial_Score_p1,Trial_RT_p1,p1_resp_stim.keys,p1_resp_stim.corr,p1_resp_stim.rt,p1_resp_stim.duration,end.started,endscreen.started,key_resp_end.started,end.stopped,key_resp_end.keys,key_resp_end.rt,key_resp_end.duration,participant,session,date,expName,psychopyVersion,frameRate,expStart,
corn,0,0,0,37,,,,,,,,,,,,,,,,,,,,,0.11663810000027297,,0.04852029999892693,0.04891739999948186,0.05945079999946756,0.05971010000030219,,,,,,,,,,,,,,,,,,,,,,,,,,,,,,,,,,,,,,,,,,,,,,,,,,,,,,,,,,,,,,,,,,,,,,,,,,,,,,,005,001,2025-01-24_14h13.53.321,NESC3137_N400_exp,2023.2.3,59.993364734189534,2025-01-24 14h15.07.256747 -0400,
deer,0,1,1,40,,,,,,,,,,,,,,,,,,,,,0.11663810000027297,,,,0.059827400000358466,0.05994660000033036,,,,,,,,,,,,,,,,,,,,,,,,,,,,,,,,,,,,,,,,,,,,,,,,,,,,,,,,,,,,,,,,,,,,,,,,,,,,,,,005,001,2025-01-24_14h13.53.321,NESC3137_N400_exp,2023.2.3,59.993364734189534,2025-01-24 14h15.07.256747 -0400,
snake,0,2,2,154,,,,,,,,,,,,,,,,,,,,,0.11663810000027297,,,,0.06005379999987781,0.060147000000142725,,,,,,,,,,,,,,,,,,,,,,,,,,,,,,,,,,,,,,,,,,,,,,,,,,,,,,,,,,,,,,,,,,,,,,,,,,,,,,,005,001,2025-01-24_14h13.53.321,NESC3137_N400_exp,2023.2.3,59.993364734189534,2025-01-24 14h15.07.256747 -0400,
carrot,0,3,3,27,,,,,,,,,,,,,,,,,,,,,0.11663810000027297,,,,0.0602335999992647,0.060359999999491265,,,,,,,,,,,,,,,,,,,,,,,,,,,,,,,,,,,,,,,,,,,,,,,,,,,,,,,,,,,,,,,,,,,,,,,,,,,,,,,005,001,2025-01-24_14h13.53.321,NESC3137_N400_exp,2023.2.3,59.993364734189534,2025-01-24 14h15.07.256747 -0400,
turtle,0,4,4,165,,,,,,,,,,,,,,,,,,,,,0.11663810000027297,,,,0.060466699998869444,0.06057969999892521,,,,,,,,,,,,,,,,,,,,,,,,,,,,,,,,,,,,,,,,,,,,,,,,,,,,,,,,,,,,,,,,,,,,,,,,,,,,,,,005,001,2025-01-24_14h13.53.321,NESC3137_N400_exp,2023.2.3,59.993364734189534,2025-01-24 14h15.07.256747 -0400,
bear,0,5,5,12,,,,,,,,,,,,,,,,,,,,,0.11663810000027297,,,,0.06070079999881273,0.06082989999958954,,,,,,,,,,,,,,,,,,,,,,,,,,,,,,,,,,,,,,,,,,,,,,,,,,,,,,,,,,,,,,,,,,,,,,,,,,,,,,,005,001,2025-01-24_14h13.53.321,NESC3137_N400_exp,2023.2.3,59.993364734189534,2025-01-24 14h15.07.256747 -0400,
pear,0,6,6,114,,,,,,,,,,,,,,,,,,,,,0.11663810000027297,,,,0.06092199999875447,0.06103640000037558,,,,,,,,,,,,,,,,,,,,,,,,,,,,,,,,,,,,,,,,,,,,,,,,,,,,,,,,,,,,,,,,,,,,,,,,,,,,,,,005,001,2025-01-24_14h13.53.321,NESC3137_N400_exp,2023.2.3,59.993364734189534,2025-01-24 14h15.07.256747 -0400,
monkey,0,7,7,98,,,,,,,,,,,,,,,,,,,,,0.11663810000027297,,,,0.06114220000017667,0.06124029999955383,,,,,,,,,,,,,,,,,,,,,,,,,,,,,,,,,,,,,,,,,,,,,,,,,,,,,,,,,,,,,,,,,,,,,,,,,,,,,,,005,001,2025-01-24_14h13.53.321,NESC3137_N400_exp,2023.2.3,59.993364734189534,2025-01-24 14h15.07.256747 -0400,
wrench,0,8,8,178,,,,,,,,,,,,,,,,,,,,,0.11663810000027297,,,,0.06131929999901331,0.06143840000004275,,,,,,,,,,,,,,,,,,,,,,,,,,,,,,,,,,,,,,,,,,,,,,,,,,,,,,,,,,,,,,,,,,,,,,,,,,,,,,,005,001,2025-01-24_14h13.53.321,NESC3137_N400_exp,2023.2.3,59.993364734189534,2025-01-24 14h15.07.256747 -0400,
vest,0,9,9,168,,,,,,,,,,,,,,,,,,,,,0.11663810000027297,,,,0.06158460000006016,0.06172299999889219,,,,,,,,,,,,,,,,,,,,,,,,,,,,,,,,,,,,,,,,,,,,,,,,,,,,,,,,,,,,,,,,,,,,,,,,,,,,,,,005,001,2025-01-24_14h13.53.321,NESC3137_N400_exp,2023.2.3,59.993364734189534,2025-01-24 14h15.07.256747 -0400,
vase,0,10,10,167,,,,,,,,,,,,,,,,,,,,,0.11663810000027297,,,,0.06182479999915813,0.06194270000014512,,,,,,,,,,,,,,,,,,,,,,,,,,,,,,,,,,,,,,,,,,,,,,,,,,,,,,,,,,,,,,,,,,,,,,,,,,,,,,,005,001,2025-01-24_14h13.53.321,NESC3137_N400_exp,2023.2.3,59.993364734189534,2025-01-24 14h15.07.256747 -0400,
ladder,0,11,11,85,,,,,,,,,,,,,,,,,,,,,0.11663810000027297,,,,0.0620240999996895,0.06211799999982759,,,,,,,,,,,,,,,,,,,,,,,,,,,,,,,,,,,,,,,,,,,,,,,,,,,,,,,,,,,,,,,,,,,,,,,,,,,,,,,005,001,2025-01-24_14h13.53.321,NESC3137_N400_exp,2023.2.3,59.993364734189534,2025-01-24 14h15.07.256747 -0400,
tiger,0,12,12,159,,,,,,,,,,,,,,,,,,,,,0.11663810000027297,,,,0.06220310000026075,0.062317399999301415,,,,,,,,,,,,,,,,,,,,,,,,,,,,,,,,,,,,,,,,,,,,,,,,,,,,,,,,,,,,,,,,,,,,,,,,,,,,,,,005,001,2025-01-24_14h13.53.321,NESC3137_N400_exp,2023.2.3,59.993364734189534,2025-01-24 14h15.07.256747 -0400,
screwdriver,0,13,13,136,,,,,,,,,,,,,,,,,,,,,0.11663810000027297,,,,0.0624363999995694,0.06256240000038815,,,,,,,,,,,,,,,,,,,,,,,,,,,,,,,,,,,,,,,,,,,,,,,,,,,,,,,,,,,,,,,,,,,,,,,,,,,,,,,005,001,2025-01-24_14h13.53.321,NESC3137_N400_exp,2023.2.3,59.993364734189534,2025-01-24 14h15.07.256747 -0400,
rabbit,0,14,14,126,,,,,,,,,,,,,,,,,,,,,0.11663810000027297,,,,0.0626721999997244,0.06279189999986556,,,,,,,,,,,,,,,,,,,,,,,,,,,,,,,,,,,,,,,,,,,,,,,,,,,,,,,,,,,,,,,,,,,,,,,,,,,,,,,005,001,2025-01-24_14h13.53.321,NESC3137_N400_exp,2023.2.3,59.993364734189534,2025-01-24 14h15.07.256747 -0400,
fryingpan,0,15,15,59,,,,,,,,,,,,,,,,,,,,,0.11663810000027297,,,,0.06288789999962319,0.06300109999938286,,,,,,,,,,,,,,,,,,,,,,,,,,,,,,,,,,,,,,,,,,,,,,,,,,,,,,,,,,,,,,,,,,,,,,,,,,,,,,,005,001,2025-01-24_14h13.53.321,NESC3137_N400_exp,2023.2.3,59.993364734189534,2025-01-24 14h15.07.256747 -0400,
hammer,0,16,16,70,,,,,,,,,,,,,,,,,,,,,0.11663810000027297,,,,0.06311209999876155,0.06323909999991884,,,,,,,,,,,,,,,,,,,,,,,,,,,,,,,,,,,,,,,,,,,,,,,,,,,,,,,,,,,,,,,,,,,,,,,,,,,,,,,005,001,2025-01-24_14h13.53.321,NESC3137_N400_exp,2023.2.3,59.993364734189534,2025-01-24 14h15.07.256747 -0400,
house,0,17,17,78,,,,,,,,,,,,,,,,,,,,,0.11663810000027297,,,,0.0633428000001004,0.06343639999977313,,,,,,,,,,,,,,,,,,,,,,,,,,,,,,,,,,,,,,,,,,,,,,,,,,,,,,,,,,,,,,,,,,,,,,,,,,,,,,,005,001,2025-01-24_14h13.53.321,NESC3137_N400_exp,2023.2.3,59.993364734189534,2025-01-24 14h15.07.256747 -0400,
pot,0,18,18,123,,,,,,,,,,,,,,,,,,,,,0.11663810000027297,,,,0.06351939999876777,0.06362139999873762,,,,,,,,,,,,,,,,,,,,,,,,,,,,,,,,,,,,,,,,,,,,,,,,,,,,,,,,,,,,,,,,,,,,,,,,,,,,,,,005,001,2025-01-24_14h13.53.321,NESC3137_N400_exp,2023.2.3,59.993364734189534,2025-01-24 14h15.07.256747 -0400,
eye,0,19,19,51,,,,,,,,,,,,,,,,,,,,,0.11663810000027297,,,,0.0636954000001424,0.0637931999990542,,,,,,,,,,,,,,,,,,,,,,,,,,,,,,,,,,,,,,,,,,,,,,,,,,,,,,,,,,,,,,,,,,,,,,,,,,,,,,,005,001,2025-01-24_14h13.53.321,NESC3137_N400_exp,2023.2.3,59.993364734189534,2025-01-24 14h15.07.256747 -0400,
belt,0,20,20,15,,,,,,,,,,,,,,,,,,,,,0.11663810000027297,,,,0.06393690000004426,0.06404569999904197,,,,,,,,,,,,,,,,,,,,,,,,,,,,,,,,,,,,,,,,,,,,,,,,,,,,,,,,,,,,,,,,,,,,,,,,,,,,,,,005,001,2025-01-24_14h13.53.321,NESC3137_N400_exp,2023.2.3,59.993364734189534,2025-01-24 14h15.07.256747 -0400,
necklace,0,21,21,103,,,,,,,,,,,,,,,,,,,,,0.11663810000027297,,,,0.06412639999871317,0.06424309999965772,,,,,,,,,,,,,,,,,,,,,,,,,,,,,,,,,,,,,,,,,,,,,,,,,,,,,,,,,,,,,,,,,,,,,,,,,,,,,,,005,001,2025-01-24_14h13.53.321,NESC3137_N400_exp,2023.2.3,59.993364734189534,2025-01-24 14h15.07.256747 -0400,
pitcher,0,22,22,121,,,,,,,,,,,,,,,,,,,,,0.11663810000027297,,,,0.06432019999920158,0.06442470000001776,,,,,,,,,,,,,,,,,,,,,,,,,,,,,,,,,,,,,,,,,,,,,,,,,,,,,,,,,,,,,,,,,,,,,,,,,,,,,,,005,001,2025-01-24_14h13.53.321,NESC3137_N400_exp,2023.2.3,59.993364734189534,2025-01-24 14h15.07.256747 -0400,
gloves,0,23,23,63,,,,,,,,,,,,,,,,,,,,,0.11663810000027297,,,,0.06453069999952277,0.06469209999886516,,,,,,,,,,,,,,,,,,,,,,,,,,,,,,,,,,,,,,,,,,,,,,,,,,,,,,,,,,,,,,,,,,,,,,,,,,,,,,,005,001,2025-01-24_14h13.53.321,NESC3137_N400_exp,2023.2.3,59.993364734189534,2025-01-24 14h15.07.256747 -0400,
piano,0,24,24,117,,,,,,,,,,,,,,,,,,,,,0.11663810000027297,,,,0.06479679999938526,0.0649159000004147,,,,,,,,,,,,,,,,,,,,,,,,,,,,,,,,,,,,,,,,,,,,,,,,,,,,,,,,,,,,,,,,,,,,,,,,,,,,,,,005,001,2025-01-24_14h13.53.321,NESC3137_N400_exp,2023.2.3,59.993364734189534,2025-01-24 14h15.07.256747 -0400,
paintbrush,0,25,25,108,,,,,,,,,,,,,,,,,,,,,0.11663810000027297,,,,0.06503080000038608,0.06518859999960114,,,,,,,,,,,,,,,,,,,,,,,,,,,,,,,,,,,,,,,,,,,,,,,,,,,,,,,,,,,,,,,,,,,,,,,,,,,,,,,005,001,2025-01-24_14h13.53.321,NESC3137_N400_exp,2023.2.3,59.993364734189534,2025-01-24 14h15.07.256747 -0400,
truck,0,26,26,164,,,,,,,,,,,,,,,,,,,,,0.11663810000027297,,,,0.06530099999872618,0.0654500000000553,,,,,,,,,,,,,,,,,,,,,,,,,,,,,,,,,,,,,,,,,,,,,,,,,,,,,,,,,,,,,,,,,,,,,,,,,,,,,,,005,001,2025-01-24_14h13.53.321,NESC3137_N400_exp,2023.2.3,59.993364734189534,2025-01-24 14h15.07.256747 -0400,
wheel,0,27,27,173,,,,,,,,,,,,,,,,,,,,,0.11663810000027297,,,,0.06557470000007015,0.06570540000029723,,,,,,,,,,,,,,,,,,,,,,,,,,,,,,,,,,,,,,,,,,,,,,,,,,,,,,,,,,,,,,,,,,,,,,,,,,,,,,,005,001,2025-01-24_14h13.53.321,NESC3137_N400_exp,2023.2.3,59.993364734189534,2025-01-24 14h15.07.256747 -0400,
eagle,0,28,28,48,,,,,,,,,,,,,,,,,,,,,0.11663810000027297,,,,0.06582340000022668,0.06596739999986312,,,,,,,,,,,,,,,,,,,,,,,,,,,,,,,,,,,,,,,,,,,,,,,,,,,,,,,,,,,,,,,,,,,,,,,,,,,,,,,005,001,2025-01-24_14h13.53.321,NESC3137_N400_exp,2023.2.3,59.993364734189534,2025-01-24 14h15.07.256747 -0400,
kite,0,29,29,83,,,,,,,,,,,,,,,,,,,,,0.11663810000027297,,,,0.06611689999954251,0.06626270000015211,,,,,,,,,,,,,,,,,,,,,,,,,,,,,,,,,,,,,,,,,,,,,,,,,,,,,,,,,,,,,,,,,,,,,,,,,,,,,,,005,001,2025-01-24_14h13.53.321,NESC3137_N400_exp,2023.2.3,59.993364734189534,2025-01-24 14h15.07.256747 -0400,
pencil,0,30,30,115,,,,,,,,,,,,,,,,,,,,,0.11663810000027297,,,,0.06637159999991127,0.06651930000043649,,,,,,,,,,,,,,,,,,,,,,,,,,,,,,,,,,,,,,,,,,,,,,,,,,,,,,,,,,,,,,,,,,,,,,,,,,,,,,,005,001,2025-01-24_14h13.53.321,NESC3137_N400_exp,2023.2.3,59.993364734189534,2025-01-24 14h15.07.256747 -0400,
watermelon,0,31,31,171,,,,,,,,,,,,,,,,,,,,,0.11663810000027297,,,,0.06663209999896935,0.06684239999958663,,,,,,,,,,,,,,,,,,,,,,,,,,,,,,,,,,,,,,,,,,,,,,,,,,,,,,,,,,,,,,,,,,,,,,,,,,,,,,,005,001,2025-01-24_14h13.53.321,NESC3137_N400_exp,2023.2.3,59.993364734189534,2025-01-24 14h15.07.256747 -0400,
owl,0,32,32,107,,,,,,,,,,,,,,,,,,,,,0.11663810000027297,,,,0.06692540000040026,0.06704069999977946,,,,,,,,,,,,,,,,,,,,,,,,,,,,,,,,,,,,,,,,,,,,,,,,,,,,,,,,,,,,,,,,,,,,,,,,,,,,,,,005,001,2025-01-24_14h13.53.321,NESC3137_N400_exp,2023.2.3,59.993364734189534,2025-01-24 14h15.07.256747 -0400,
cigarette,0,33,33,33,,,,,,,,,,,,,,,,,,,,,0.11663810000027297,,,,0.06714089999877615,0.0672498000003543,,,,,,,,,,,,,,,,,,,,,,,,,,,,,,,,,,,,,,,,,,,,,,,,,,,,,,,,,,,,,,,,,,,,,,,,,,,,,,,005,001,2025-01-24_14h13.53.321,NESC3137_N400_exp,2023.2.3,59.993364734189534,2025-01-24 14h15.07.256747 -0400,
lock,0,34,34,96,,,,,,,,,,,,,,,,,,,,,0.11663810000027297,,,,0.06734770000002754,0.06744979999893985,,,,,,,,,,,,,,,,,,,,,,,,,,,,,,,,,,,,,,,,,,,,,,,,,,,,,,,,,,,,,,,,,,,,,,,,,,,,,,,005,001,2025-01-24_14h13.53.321,NESC3137_N400_exp,2023.2.3,59.993364734189534,2025-01-24 14h15.07.256747 -0400,
church,0,35,35,32,,,,,,,,,,,,,,,,,,,,,0.11663810000027297,,,,0.06754039999941597,0.06764649999968242,,,,,,,,,,,,,,,,,,,,,,,,,,,,,,,,,,,,,,,,,,,,,,,,,,,,,,,,,,,,,,,,,,,,,,,,,,,,,,,005,001,2025-01-24_14h13.53.321,NESC3137_N400_exp,2023.2.3,59.993364734189534,2025-01-24 14h15.07.256747 -0400,
clown,0,36,36,36,,,,,,,,,,,,,,,,,,,,,0.11663810000027297,,,,0.06776539999918896,0.06789329999992333,,,,,,,,,,,,,,,,,,,,,,,,,,,,,,,,,,,,,,,,,,,,,,,,,,,,,,,,,,,,,,,,,,,,,,,,,,,,,,,005,001,2025-01-24_14h13.53.321,NESC3137_N400_exp,2023.2.3,59.993364734189534,2025-01-24 14h15.07.256747 -0400,
fence,0,37,37,52,,,,,,,,,,,,,,,,,,,,,0.11663810000027297,,,,0.0679853000001458,0.06808809999893128,,,,,,,,,,,,,,,,,,,,,,,,,,,,,,,,,,,,,,,,,,,,,,,,,,,,,,,,,,,,,,,,,,,,,,,,,,,,,,,005,001,2025-01-24_14h13.53.321,NESC3137_N400_exp,2023.2.3,59.993364734189534,2025-01-24 14h15.07.256747 -0400,
bed,0,38,38,13,,,,,,,,,,,,,,,,,,,,,0.11663810000027297,,,,0.06820369999877585,0.06832000000031258,,,,,,,,,,,,,,,,,,,,,,,,,,,,,,,,,,,,,,,,,,,,,,,,,,,,,,,,,,,,,,,,,,,,,,,,,,,,,,,005,001,2025-01-24_14h13.53.321,NESC3137_N400_exp,2023.2.3,59.993364734189534,2025-01-24 14h15.07.256747 -0400,
peach,0,39,39,110,,,,,,,,,,,,,,,,,,,,,0.11663810000027297,,,,0.06840069999998377,0.06850529999974242,,,,,,,,,,,,,,,,,,,,,,,,,,,,,,,,,,,,,,,,,,,,,,,,,,,,,,,,,,,,,,,,,,,,,,,,,,,,,,,005,001,2025-01-24_14h13.53.321,NESC3137_N400_exp,2023.2.3,59.993364734189534,2025-01-24 14h15.07.256747 -0400,
tennisracket,0,40,40,157,,,,,,,,,,,,,,,,,,,,,0.11663810000027297,,,,0.06857750000017404,0.06867099999908532,,,,,,,,,,,,,,,,,,,,,,,,,,,,,,,,,,,,,,,,,,,,,,,,,,,,,,,,,,,,,,,,,,,,,,,,,,,,,,,005,001,2025-01-24_14h13.53.321,NESC3137_N400_exp,2023.2.3,59.993364734189534,2025-01-24 14h15.07.256747 -0400,
snail,0,41,41,144,,,,,,,,,,,,,,,,,,,,,0.11663810000027297,,,,0.06875140000011015,0.06884059999902092,,,,,,,,,,,,,,,,,,,,,,,,,,,,,,,,,,,,,,,,,,,,,,,,,,,,,,,,,,,,,,,,,,,,,,,,,,,,,,,005,001,2025-01-24_14h13.53.321,NESC3137_N400_exp,2023.2.3,59.993364734189534,2025-01-24 14h15.07.256747 -0400,
scissors,0,42,42,135,,,,,,,,,,,,,,,,,,,,,0.11663810000027297,,,,0.06891079999877547,0.06901529999959166,,,,,,,,,,,,,,,,,,,,,,,,,,,,,,,,,,,,,,,,,,,,,,,,,,,,,,,,,,,,,,,,,,,,,,,,,,,,,,,005,001,2025-01-24_14h13.53.321,NESC3137_N400_exp,2023.2.3,59.993364734189534,2025-01-24 14h15.07.256747 -0400,
cloud,0,43,43,35,,,,,,,,,,,,,,,,,,,,,0.11663810000027297,,,,0.06910989999960293,0.06922279999889724,,,,,,,,,,,,,,,,,,,,,,,,,,,,,,,,,,,,,,,,,,,,,,,,,,,,,,,,,,,,,,,,,,,,,,,,,,,,,,,005,001,2025-01-24_14h13.53.321,NESC3137_N400_exp,2023.2.3,59.993364734189534,2025-01-24 14h15.07.256747 -0400,
onion,0,44,44,104,,,,,,,,,,,,,,,,,,,,,0.11663810000027297,,,,0.06932009999945876,0.06941619999997783,,,,,,,,,,,,,,,,,,,,,,,,,,,,,,,,,,,,,,,,,,,,,,,,,,,,,,,,,,,,,,,,,,,,,,,,,,,,,,,005,001,2025-01-24_14h13.53.321,NESC3137_N400_exp,2023.2.3,59.993364734189534,2025-01-24 14h15.07.256747 -0400,
alligator,0,45,45,2,,,,,,,,,,,,,,,,,,,,,0.11663810000027297,,,,0.06949929999973392,0.06959889999961888,,,,,,,,,,,,,,,,,,,,,,,,,,,,,,,,,,,,,,,,,,,,,,,,,,,,,,,,,,,,,,,,,,,,,,,,,,,,,,,005,001,2025-01-24_14h13.53.321,NESC3137_N400_exp,2023.2.3,59.993364734189534,2025-01-24 14h15.07.256747 -0400,
fish,0,46,46,54,,,,,,,,,,,,,,,,,,,,,0.11663810000027297,,,,0.06970449999971606,0.06981189999896742,,,,,,,,,,,,,,,,,,,,,,,,,,,,,,,,,,,,,,,,,,,,,,,,,,,,,,,,,,,,,,,,,,,,,,,,,,,,,,,005,001,2025-01-24_14h13.53.321,NESC3137_N400_exp,2023.2.3,59.993364734189534,2025-01-24 14h15.07.256747 -0400,
elephant,0,47,47,49,,,,,,,,,,,,,,,,,,,,,0.11663810000027297,,,,0.06988749999982247,0.0699850000000879,,,,,,,,,,,,,,,,,,,,,,,,,,,,,,,,,,,,,,,,,,,,,,,,,,,,,,,,,,,,,,,,,,,,,,,,,,,,,,,005,001,2025-01-24_14h13.53.321,NESC3137_N400_exp,2023.2.3,59.993364734189534,2025-01-24 14h15.07.256747 -0400,
plug,0,48,48,122,,,,,,,,,,,,,,,,,,,,,0.11663810000027297,,,,0.07005639999988489,0.07013960000040242,,,,,,,,,,,,,,,,,,,,,,,,,,,,,,,,,,,,,,,,,,,,,,,,,,,,,,,,,,,,,,,,,,,,,,,,,,,,,,,005,001,2025-01-24_14h13.53.321,NESC3137_N400_exp,2023.2.3,59.993364734189534,2025-01-24 14h15.07.256747 -0400,
flower,0,49,49,56,,,,,,,,,,,,,,,,,,,,,0.11663810000027297,,,,0.07023759999901813,0.0703326000002562,,,,,,,,,,,,,,,,,,,,,,,,,,,,,,,,,,,,,,,,,,,,,,,,,,,,,,,,,,,,,,,,,,,,,,,,,,,,,,,005,001,2025-01-24_14h13.53.321,NESC3137_N400_exp,2023.2.3,59.993364734189534,2025-01-24 14h15.07.256747 -0400,
star,0,50,50,148,,,,,,,,,,,,,,,,,,,,,0.11663810000027297,,,,0.07041670000035083,0.07051689999934752,,,,,,,,,,,,,,,,,,,,,,,,,,,,,,,,,,,,,,,,,,,,,,,,,,,,,,,,,,,,,,,,,,,,,,,,,,,,,,,005,001,2025-01-24_14h13.53.321,NESC3137_N400_exp,2023.2.3,59.993364734189534,2025-01-24 14h15.07.256747 -0400,
table,0,51,51,155,,,,,,,,,,,,,,,,,,,,,0.11663810000027297,,,,0.07058599999982107,0.07066659999873082,,,,,,,,,,,,,,,,,,,,,,,,,,,,,,,,,,,,,,,,,,,,,,,,,,,,,,,,,,,,,,,,,,,,,,,,,,,,,,,005,001,2025-01-24_14h13.53.321,NESC3137_N400_exp,2023.2.3,59.993364734189534,2025-01-24 14h15.07.256747 -0400,
bread,0,52,52,20,,,,,,,,,,,,,,,,,,,,,0.11663810000027297,,,,0.07074540000030538,0.07084799999938696,,,,,,,,,,,,,,,,,,,,,,,,,,,,,,,,,,,,,,,,,,,,,,,,,,,,,,,,,,,,,,,,,,,,,,,,,,,,,,,005,001,2025-01-24_14h13.53.321,NESC3137_N400_exp,2023.2.3,59.993364734189534,2025-01-24 14h15.07.256747 -0400,
jacket,0,53,53,79,,,,,,,,,,,,,,,,,,,,,0.11663810000027297,,,,0.07091339999897173,0.07104819999949541,,,,,,,,,,,,,,,,,,,,,,,,,,,,,,,,,,,,,,,,,,,,,,,,,,,,,,,,,,,,,,,,,,,,,,,,,,,,,,,005,001,2025-01-24_14h13.53.321,NESC3137_N400_exp,2023.2.3,59.993364734189534,2025-01-24 14h15.07.256747 -0400,
gorilla,0,54,54,65,,,,,,,,,,,,,,,,,,,,,0.11663810000027297,,,,0.07114939999883063,0.0712586999998166,,,,,,,,,,,,,,,,,,,,,,,,,,,,,,,,,,,,,,,,,,,,,,,,,,,,,,,,,,,,,,,,,,,,,,,,,,,,,,,005,001,2025-01-24_14h13.53.321,NESC3137_N400_exp,2023.2.3,59.993364734189534,2025-01-24 14h15.07.256747 -0400,
anchor,0,55,55,3,,,,,,,,,,,,,,,,,,,,,0.11663810000027297,,,,0.0713408999999956,0.07144789999983914,,,,,,,,,,,,,,,,,,,,,,,,,,,,,,,,,,,,,,,,,,,,,,,,,,,,,,,,,,,,,,,,,,,,,,,,,,,,,,,005,001,2025-01-24_14h13.53.321,NESC3137_N400_exp,2023.2.3,59.993364734189534,2025-01-24 14h15.07.256747 -0400,
balloon,0,56,56,8,,,,,,,,,,,,,,,,,,,,,0.11663810000027297,,,,0.07154850000006263,0.07165399999939837,,,,,,,,,,,,,,,,,,,,,,,,,,,,,,,,,,,,,,,,,,,,,,,,,,,,,,,,,,,,,,,,,,,,,,,,,,,,,,,005,001,2025-01-24_14h13.53.321,NESC3137_N400_exp,2023.2.3,59.993364734189534,2025-01-24 14h15.07.256747 -0400,
tree,0,57,57,163,,,,,,,,,,,,,,,,,,,,,0.11663810000027297,,,,0.07173320000038075,0.07181959999979881,,,,,,,,,,,,,,,,,,,,,,,,,,,,,,,,,,,,,,,,,,,,,,,,,,,,,,,,,,,,,,,,,,,,,,,,,,,,,,,005,001,2025-01-24_14h13.53.321,NESC3137_N400_exp,2023.2.3,59.993364734189534,2025-01-24 14h15.07.256747 -0400,
glasses,0,58,58,62,,,,,,,,,,,,,,,,,,,,,0.11663810000027297,,,,0.07188959999984945,0.07197199999973236,,,,,,,,,,,,,,,,,,,,,,,,,,,,,,,,,,,,,,,,,,,,,,,,,,,,,,,,,,,,,,,,,,,,,,,,,,,,,,,005,001,2025-01-24_14h13.53.321,NESC3137_N400_exp,2023.2.3,59.993364734189534,2025-01-24 14h15.07.256747 -0400,
umbrella,0,59,59,166,,,,,,,,,,,,,,,,,,,,,0.11663810000027297,,,,0.07203999999910593,0.07212859999890497,,,,,,,,,,,,,,,,,,,,,,,,,,,,,,,,,,,,,,,,,,,,,,,,,,,,,,,,,,,,,,,,,,,,,,,,,,,,,,,005,001,2025-01-24_14h13.53.321,NESC3137_N400_exp,2023.2.3,59.993364734189534,2025-01-24 14h15.07.256747 -0400,
airplane,0,60,60,1,,,,,,,,,,,,,,,,,,,,,0.11663810000027297,,,,0.07219809999878635,0.07227459999921848,,,,,,,,,,,,,,,,,,,,,,,,,,,,,,,,,,,,,,,,,,,,,,,,,,,,,,,,,,,,,,,,,,,,,,,,,,,,,,,005,001,2025-01-24_14h13.53.321,NESC3137_N400_exp,2023.2.3,59.993364734189534,2025-01-24 14h15.07.256747 -0400,
bee,0,61,61,14,,,,,,,,,,,,,,,,,,,,,0.11663810000027297,,,,0.07234049999897252,0.0724088999995729,,,,,,,,,,,,,,,,,,,,,,,,,,,,,,,,,,,,,,,,,,,,,,,,,,,,,,,,,,,,,,,,,,,,,,,,,,,,,,,005,001,2025-01-24_14h13.53.321,NESC3137_N400_exp,2023.2.3,59.993364734189534,2025-01-24 14h15.07.256747 -0400,
cannon,0,62,62,26,,,,,,,,,,,,,,,,,,,,,0.11663810000027297,,,,0.07247370000004594,0.07257099999878847,,,,,,,,,,,,,,,,,,,,,,,,,,,,,,,,,,,,,,,,,,,,,,,,,,,,,,,,,,,,,,,,,,,,,,,,,,,,,,,005,001,2025-01-24_14h13.53.321,NESC3137_N400_exp,2023.2.3,59.993364734189534,2025-01-24 14h15.07.256747 -0400,
lettuce,0,63,63,90,,,,,,,,,,,,,,,,,,,,,0.11663810000027297,,,,0.07263500000044587,0.07277699999940523,,,,,,,,,,,,,,,,,,,,,,,,,,,,,,,,,,,,,,,,,,,,,,,,,,,,,,,,,,,,,,,,,,,,,,,,,,,,,,,005,001,2025-01-24_14h13.53.321,NESC3137_N400_exp,2023.2.3,59.993364734189534,2025-01-24 14h15.07.256747 -0400,
lemon,0,64,64,89,,,,,,,,,,,,,,,,,,,,,0.11663810000027297,,,,0.07283769999958167,0.07294419999925594,,,,,,,,,,,,,,,,,,,,,,,,,,,,,,,,,,,,,,,,,,,,,,,,,,,,,,,,,,,,,,,,,,,,,,,,,,,,,,,005,001,2025-01-24_14h13.53.321,NESC3137_N400_exp,2023.2.3,59.993364734189534,2025-01-24 14h15.07.256747 -0400,
strawberry,0,65,65,150,,,,,,,,,,,,,,,,,,,,,0.11663810000027297,,,,0.07300989999930607,0.07311769999978424,,,,,,,,,,,,,,,,,,,,,,,,,,,,,,,,,,,,,,,,,,,,,,,,,,,,,,,,,,,,,,,,,,,,,,,,,,,,,,,005,001,2025-01-24_14h13.53.321,NESC3137_N400_exp,2023.2.3,59.993364734189534,2025-01-24 14h15.07.256747 -0400,
salt,0,66,66,133,,,,,,,,,,,,,,,,,,,,,0.11663810000027297,,,,0.0731844000001729,0.0732847999988735,,,,,,,,,,,,,,,,,,,,,,,,,,,,,,,,,,,,,,,,,,,,,,,,,,,,,,,,,,,,,,,,,,,,,,,,,,,,,,,005,001,2025-01-24_14h13.53.321,NESC3137_N400_exp,2023.2.3,59.993364734189534,2025-01-24 14h15.07.256747 -0400,
axe,0,67,67,6,,,,,,,,,,,,,,,,,,,,,0.11663810000027297,,,,0.07336969999960274,0.07349710000016785,,,,,,,,,,,,,,,,,,,,,,,,,,,,,,,,,,,,,,,,,,,,,,,,,,,,,,,,,,,,,,,,,,,,,,,,,,,,,,,005,001,2025-01-24_14h13.53.321,NESC3137_N400_exp,2023.2.3,59.993364734189534,2025-01-24 14h15.07.256747 -0400,
skunk,0,68,68,142,,,,,,,,,,,,,,,,,,,,,0.11663810000027297,,,,0.07357020000017656,0.07366240000010293,,,,,,,,,,,,,,,,,,,,,,,,,,,,,,,,,,,,,,,,,,,,,,,,,,,,,,,,,,,,,,,,,,,,,,,,,,,,,,,005,001,2025-01-24_14h13.53.321,NESC3137_N400_exp,2023.2.3,59.993364734189534,2025-01-24 14h15.07.256747 -0400,
dog,0,69,69,42,,,,,,,,,,,,,,,,,,,,,0.11663810000027297,,,,0.073725000000195,0.07382460000007995,,,,,,,,,,,,,,,,,,,,,,,,,,,,,,,,,,,,,,,,,,,,,,,,,,,,,,,,,,,,,,,,,,,,,,,,,,,,,,,005,001,2025-01-24_14h13.53.321,NESC3137_N400_exp,2023.2.3,59.993364734189534,2025-01-24 14h15.07.256747 -0400,
hanger,0,70,70,72,,,,,,,,,,,,,,,,,,,,,0.11663810000027297,,,,0.07400549999874784,0.07413809999889054,,,,,,,,,,,,,,,,,,,,,,,,,,,,,,,,,,,,,,,,,,,,,,,,,,,,,,,,,,,,,,,,,,,,,,,,,,,,,,,005,001,2025-01-24_14h13.53.321,NESC3137_N400_exp,2023.2.3,59.993364734189534,2025-01-24 14h15.07.256747 -0400,
candle,0,71,71,25,,,,,,,,,,,,,,,,,,,,,0.11663810000027297,,,,0.07424869999886141,0.07443369999964489,,,,,,,,,,,,,,,,,,,,,,,,,,,,,,,,,,,,,,,,,,,,,,,,,,,,,,,,,,,,,,,,,,,,,,,,,,,,,,,005,001,2025-01-24_14h13.53.321,NESC3137_N400_exp,2023.2.3,59.993364734189534,2025-01-24 14h15.07.256747 -0400,
horse,0,72,72,77,,,,,,,,,,,,,,,,,,,,,0.11663810000027297,,,,0.07458529999894381,0.07472409999900265,,,,,,,,,,,,,,,,,,,,,,,,,,,,,,,,,,,,,,,,,,,,,,,,,,,,,,,,,,,,,,,,,,,,,,,,,,,,,,,005,001,2025-01-24_14h13.53.321,NESC3137_N400_exp,2023.2.3,59.993364734189534,2025-01-24 14h15.07.256747 -0400,
skirt,0,73,73,141,,,,,,,,,,,,,,,,,,,,,0.11663810000027297,,,,0.07485199999973702,0.07497789999979432,,,,,,,,,,,,,,,,,,,,,,,,,,,,,,,,,,,,,,,,,,,,,,,,,,,,,,,,,,,,,,,,,,,,,,,,,,,,,,,005,001,2025-01-24_14h13.53.321,NESC3137_N400_exp,2023.2.3,59.993364734189534,2025-01-24 14h15.07.256747 -0400,
fox,0,74,74,57,,,,,,,,,,,,,,,,,,,,,0.11663810000027297,,,,0.07507970000006026,0.07600060000004305,,,,,,,,,,,,,,,,,,,,,,,,,,,,,,,,,,,,,,,,,,,,,,,,,,,,,,,,,,,,,,,,,,,,,,,,,,,,,,,005,001,2025-01-24_14h13.53.321,NESC3137_N400_exp,2023.2.3,59.993364734189534,2025-01-24 14h15.07.256747 -0400,
envelope,0,75,75,50,,,,,,,,,,,,,,,,,,,,,0.11663810000027297,,,,0.07611159999942174,0.07625279999956547,,,,,,,,,,,,,,,,,,,,,,,,,,,,,,,,,,,,,,,,,,,,,,,,,,,,,,,,,,,,,,,,,,,,,,,,,,,,,,,005,001,2025-01-24_14h13.53.321,NESC3137_N400_exp,2023.2.3,59.993364734189534,2025-01-24 14h15.07.256747 -0400,
wineglass,0,76,76,177,,,,,,,,,,,,,,,,,,,,,0.11663810000027297,,,,0.07640249999894877,0.0765492999998969,,,,,,,,,,,,,,,,,,,,,,,,,,,,,,,,,,,,,,,,,,,,,,,,,,,,,,,,,,,,,,,,,,,,,,,,,,,,,,,005,001,2025-01-24_14h13.53.321,NESC3137_N400_exp,2023.2.3,59.993364734189534,2025-01-24 14h15.07.256747 -0400,
spider,0,77,77,146,,,,,,,,,,,,,,,,,,,,,0.11663810000027297,,,,0.07666539999991073,0.07679060000009486,,,,,,,,,,,,,,,,,,,,,,,,,,,,,,,,,,,,,,,,,,,,,,,,,,,,,,,,,,,,,,,,,,,,,,,,,,,,,,,005,001,2025-01-24_14h13.53.321,NESC3137_N400_exp,2023.2.3,59.993364734189534,2025-01-24 14h15.07.256747 -0400,
pipe,0,78,78,120,,,,,,,,,,,,,,,,,,,,,0.11663810000027297,,,,0.07689609999943059,0.07705829999940761,,,,,,,,,,,,,,,,,,,,,,,,,,,,,,,,,,,,,,,,,,,,,,,,,,,,,,,,,,,,,,,,,,,,,,,,,,,,,,,005,001,2025-01-24_14h13.53.321,NESC3137_N400_exp,2023.2.3,59.993364734189534,2025-01-24 14h15.07.256747 -0400,
penguin,0,79,79,116,,,,,,,,,,,,,,,,,,,,,0.11663810000027297,,,,0.0771759999988717,0.0773073000000295,,,,,,,,,,,,,,,,,,,,,,,,,,,,,,,,,,,,,,,,,,,,,,,,,,,,,,,,,,,,,,,,,,,,,,,,,,,,,,,005,001,2025-01-24_14h13.53.321,NESC3137_N400_exp,2023.2.3,59.993364734189534,2025-01-24 14h15.07.256747 -0400,
pants,0,80,80,109,,,,,,,,,,,,,,,,,,,,,0.11663810000027297,,,,0.07742220000000088,0.07756659999904514,,,,,,,,,,,,,,,,,,,,,,,,,,,,,,,,,,,,,,,,,,,,,,,,,,,,,,,,,,,,,,,,,,,,,,,,,,,,,,,005,001,2025-01-24_14h13.53.321,NESC3137_N400_exp,2023.2.3,59.993364734189534,2025-01-24 14h15.07.256747 -0400,
recordplayer,0,81,81,127,,,,,,,,,,,,,,,,,,,,,0.11663810000027297,,,,0.0776927999995678,0.07782869999937247,,,,,,,,,,,,,,,,,,,,,,,,,,,,,,,,,,,,,,,,,,,,,,,,,,,,,,,,,,,,,,,,,,,,,,,,,,,,,,,005,001,2025-01-24_14h13.53.321,NESC3137_N400_exp,2023.2.3,59.993364734189534,2025-01-24 14h15.07.256747 -0400,
swan,0,82,82,153,,,,,,,,,,,,,,,,,,,,,0.11663810000027297,,,,0.07793250000031549,0.07806390000041574,,,,,,,,,,,,,,,,,,,,,,,,,,,,,,,,,,,,,,,,,,,,,,,,,,,,,,,,,,,,,,,,,,,,,,,,,,,,,,,005,001,2025-01-24_14h13.53.321,NESC3137_N400_exp,2023.2.3,59.993364734189534,2025-01-24 14h15.07.256747 -0400,
heart,0,83,83,75,,,,,,,,,,,,,,,,,,,,,0.11663810000027297,,,,0.07820019999962824,0.07833339999888267,,,,,,,,,,,,,,,,,,,,,,,,,,,,,,,,,,,,,,,,,,,,,,,,,,,,,,,,,,,,,,,,,,,,,,,,,,,,,,,005,001,2025-01-24_14h13.53.321,NESC3137_N400_exp,2023.2.3,59.993364734189534,2025-01-24 14h15.07.256747 -0400,
purse,0,84,84,125,,,,,,,,,,,,,,,,,,,,,0.11663810000027297,,,,0.07844259999910719,0.07856449999962933,,,,,,,,,,,,,,,,,,,,,,,,,,,,,,,,,,,,,,,,,,,,,,,,,,,,,,,,,,,,,,,,,,,,,,,,,,,,,,,005,001,2025-01-24_14h13.53.321,NESC3137_N400_exp,2023.2.3,59.993364734189534,2025-01-24 14h15.07.256747 -0400,
rollingpin,0,85,85,130,,,,,,,,,,,,,,,,,,,,,0.11663810000027297,,,,0.07866309999917576,0.07878960000016377,,,,,,,,,,,,,,,,,,,,,,,,,,,,,,,,,,,,,,,,,,,,,,,,,,,,,,,,,,,,,,,,,,,,,,,,,,,,,,,005,001,2025-01-24_14h13.53.321,NESC3137_N400_exp,2023.2.3,59.993364734189534,2025-01-24 14h15.07.256747 -0400,
peach,0,86,86,111,,,,,,,,,,,,,,,,,,,,,0.11663810000027297,,,,0.07892779999929189,0.07909610000024259,,,,,,,,,,,,,,,,,,,,,,,,,,,,,,,,,,,,,,,,,,,,,,,,,,,,,,,,,,,,,,,,,,,,,,,,,,,,,,,005,001,2025-01-24_14h13.53.321,NESC3137_N400_exp,2023.2.3,59.993364734189534,2025-01-24 14h15.07.256747 -0400,
grapes,0,87,87,66,,,,,,,,,,,,,,,,,,,,,0.11663810000027297,,,,0.07922770000004675,0.07936890000019048,,,,,,,,,,,,,,,,,,,,,,,,,,,,,,,,,,,,,,,,,,,,,,,,,,,,,,,,,,,,,,,,,,,,,,,,,,,,,,,005,001,2025-01-24_14h13.53.321,NESC3137_N400_exp,2023.2.3,59.993364734189534,2025-01-24 14h15.07.256747 -0400,
lightswitch,0,88,88,92,,,,,,,,,,,,,,,,,,,,,0.11663810000027297,,,,0.07952119999936258,0.07967709999866202,,,,,,,,,,,,,,,,,,,,,,,,,,,,,,,,,,,,,,,,,,,,,,,,,,,,,,,,,,,,,,,,,,,,,,,,,,,,,,,005,001,2025-01-24_14h13.53.321,NESC3137_N400_exp,2023.2.3,59.993364734189534,2025-01-24 14h15.07.256747 -0400,
flag,0,89,89,55,,,,,,,,,,,,,,,,,,,,,0.11663810000027297,,,,0.07982869999977993,0.07996710000043095,,,,,,,,,,,,,,,,,,,,,,,,,,,,,,,,,,,,,,,,,,,,,,,,,,,,,,,,,,,,,,,,,,,,,,,,,,,,,,,005,001,2025-01-24_14h13.53.321,NESC3137_N400_exp,2023.2.3,59.993364734189534,2025-01-24 14h15.07.256747 -0400,
snowman,0,90,90,145,,,,,,,,,,,,,,,,,,,,,0.11663810000027297,,,,0.08006869999917399,0.08019959999910498,,,,,,,,,,,,,,,,,,,,,,,,,,,,,,,,,,,,,,,,,,,,,,,,,,,,,,,,,,,,,,,,,,,,,,,,,,,,,,,005,001,2025-01-24_14h13.53.321,NESC3137_N400_exp,2023.2.3,59.993364734189534,2025-01-24 14h15.07.256747 -0400,
sheep,0,91,91,139,,,,,,,,,,,,,,,,,,,,,0.11663810000027297,,,,0.08032019999882323,0.08045659999879717,,,,,,,,,,,,,,,,,,,,,,,,,,,,,,,,,,,,,,,,,,,,,,,,,,,,,,,,,,,,,,,,,,,,,,,,,,,,,,,005,001,2025-01-24_14h13.53.321,NESC3137_N400_exp,2023.2.3,59.993364734189534,2025-01-24 14h15.07.256747 -0400,
ostrich,0,92,92,106,,,,,,,,,,,,,,,,,,,,,0.11663810000027297,,,,0.08055160000003525,0.08067279999886523,,,,,,,,,,,,,,,,,,,,,,,,,,,,,,,,,,,,,,,,,,,,,,,,,,,,,,,,,,,,,,,,,,,,,,,,,,,,,,,005,001,2025-01-24_14h13.53.321,NESC3137_N400_exp,2023.2.3,59.993364734189534,2025-01-24 14h15.07.256747 -0400,
lightbulb,0,93,93,91,,,,,,,,,,,,,,,,,,,,,0.11663810000027297,,,,0.080819299999348,0.0809809000002133,,,,,,,,,,,,,,,,,,,,,,,,,,,,,,,,,,,,,,,,,,,,,,,,,,,,,,,,,,,,,,,,,,,,,,,,,,,,,,,005,001,2025-01-24_14h13.53.321,NESC3137_N400_exp,2023.2.3,59.993364734189534,2025-01-24 14h15.07.256747 -0400,
peanut,0,94,94,113,,,,,,,,,,,,,,,,,,,,,0.11663810000027297,,,,0.08111239999925601,0.08147900000039954,,,,,,,,,,,,,,,,,,,,,,,,,,,,,,,,,,,,,,,,,,,,,,,,,,,,,,,,,,,,,,,,,,,,,,,,,,,,,,,005,001,2025-01-24_14h13.53.321,NESC3137_N400_exp,2023.2.3,59.993364734189534,2025-01-24 14h15.07.256747 -0400,
camel,0,95,95,24,,,,,,,,,,,,,,,,,,,,,0.11663810000027297,,,,0.08168010000008508,0.08191330000045127,,,,,,,,,,,,,,,,,,,,,,,,,,,,,,,,,,,,,,,,,,,,,,,,,,,,,,,,,,,,,,,,,,,,,,,,,,,,,,,005,001,2025-01-24_14h13.53.321,NESC3137_N400_exp,2023.2.3,59.993364734189534,2025-01-24 14h15.07.256747 -0400,
book,0,96,96,17,,,,,,,,,,,,,,,,,,,,,0.11663810000027297,,,,0.0820341999988159,0.0821775999993406,,,,,,,,,,,,,,,,,,,,,,,,,,,,,,,,,,,,,,,,,,,,,,,,,,,,,,,,,,,,,,,,,,,,,,,,,,,,,,,005,001,2025-01-24_14h13.53.321,NESC3137_N400_exp,2023.2.3,59.993364734189534,2025-01-24 14h15.07.256747 -0400,
squirrel,0,97,97,147,,,,,,,,,,,,,,,,,,,,,0.11663810000027297,,,,0.08230999999977939,0.08310340000025462,,,,,,,,,,,,,,,,,,,,,,,,,,,,,,,,,,,,,,,,,,,,,,,,,,,,,,,,,,,,,,,,,,,,,,,,,,,,,,,005,001,2025-01-24_14h13.53.321,NESC3137_N400_exp,2023.2.3,59.993364734189534,2025-01-24 14h15.07.256747 -0400,
violin,0,98,98,169,,,,,,,,,,,,,,,,,,,,,0.11663810000027297,,,,0.08324290000018664,0.08338840000033088,,,,,,,,,,,,,,,,,,,,,,,,,,,,,,,,,,,,,,,,,,,,,,,,,,,,,,,,,,,,,,,,,,,,,,,,,,,,,,,005,001,2025-01-24_14h13.53.321,NESC3137_N400_exp,2023.2.3,59.993364734189534,2025-01-24 14h15.07.256747 -0400,
cow,0,99,99,38,,,,,,,,,,,,,,,,,,,,,0.11663810000027297,,,,0.08350049999899056,0.08363429999917571,,,,,,,,,,,,,,,,,,,,,,,,,,,,,,,,,,,,,,,,,,,,,,,,,,,,,,,,,,,,,,,,,,,,,,,,,,,,,,,005,001,2025-01-24_14h13.53.321,NESC3137_N400_exp,2023.2.3,59.993364734189534,2025-01-24 14h15.07.256747 -0400,
leg,0,100,100,88,,,,,,,,,,,,,,,,,,,,,0.11663810000027297,,,,0.08376539999881061,0.083891099999164,,,,,,,,,,,,,,,,,,,,,,,,,,,,,,,,,,,,,,,,,,,,,,,,,,,,,,,,,,,,,,,,,,,,,,,,,,,,,,,005,001,2025-01-24_14h13.53.321,NESC3137_N400_exp,2023.2.3,59.993364734189534,2025-01-24 14h15.07.256747 -0400,
desk,0,101,101,41,,,,,,,,,,,,,,,,,,,,,0.11663810000027297,,,,0.08401620000040566,0.08415339999919524,,,,,,,,,,,,,,,,,,,,,,,,,,,,,,,,,,,,,,,,,,,,,,,,,,,,,,,,,,,,,,,,,,,,,,,,,,,,,,,005,001,2025-01-24_14h13.53.321,NESC3137_N400_exp,2023.2.3,59.993364734189534,2025-01-24 14h15.07.256747 -0400,
butterfly,0,102,102,21,,,,,,,,,,,,,,,,,,,,,0.11663810000027297,,,,0.08428549999916868,0.0844266999993124,,,,,,,,,,,,,,,,,,,,,,,,,,,,,,,,,,,,,,,,,,,,,,,,,,,,,,,,,,,,,,,,,,,,,,,,,,,,,,,005,001,2025-01-24_14h13.53.321,NESC3137_N400_exp,2023.2.3,59.993364734189534,2025-01-24 14h15.07.256747 -0400,
dresser,0,103,103,45,,,,,,,,,,,,,,,,,,,,,0.11663810000027297,,,,0.08453489999919839,0.08464139999887266,,,,,,,,,,,,,,,,,,,,,,,,,,,,,,,,,,,,,,,,,,,,,,,,,,,,,,,,,,,,,,,,,,,,,,,,,,,,,,,005,001,2025-01-24_14h13.53.321,NESC3137_N400_exp,2023.2.3,59.993364734189534,2025-01-24 14h15.07.256747 -0400,
lobster,0,104,104,95,,,,,,,,,,,,,,,,,,,,,0.11663810000027297,,,,0.0847555000000284,0.0848716999989847,,,,,,,,,,,,,,,,,,,,,,,,,,,,,,,,,,,,,,,,,,,,,,,,,,,,,,,,,,,,,,,,,,,,,,,,,,,,,,,005,001,2025-01-24_14h13.53.321,NESC3137_N400_exp,2023.2.3,59.993364734189534,2025-01-24 14h15.07.256747 -0400,
frog,0,105,105,58,,,,,,,,,,,,,,,,,,,,,0.11663810000027297,,,,0.08497709999937797,0.08508699999947567,,,,,,,,,,,,,,,,,,,,,,,,,,,,,,,,,,,,,,,,,,,,,,,,,,,,,,,,,,,,,,,,,,,,,,,,,,,,,,,005,001,2025-01-24_14h13.53.321,NESC3137_N400_exp,2023.2.3,59.993364734189534,2025-01-24 14h15.07.256747 -0400,
garbagecan,0,106,106,60,,,,,,,,,,,,,,,,,,,,,0.11663810000027297,,,,0.08518000000003667,0.08530939999945986,,,,,,,,,,,,,,,,,,,,,,,,,,,,,,,,,,,,,,,,,,,,,,,,,,,,,,,,,,,,,,,,,,,,,,,,,,,,,,,005,001,2025-01-24_14h13.53.321,NESC3137_N400_exp,2023.2.3,59.993364734189534,2025-01-24 14h15.07.256747 -0400,
ruler,0,107,107,132,,,,,,,,,,,,,,,,,,,,,0.11663810000027297,,,,0.08542510000006587,0.08553699999902165,,,,,,,,,,,,,,,,,,,,,,,,,,,,,,,,,,,,,,,,,,,,,,,,,,,,,,,,,,,,,,,,,,,,,,,,,,,,,,,005,001,2025-01-24_14h13.53.321,NESC3137_N400_exp,2023.2.3,59.993364734189534,2025-01-24 14h15.07.256747 -0400,
button,0,108,108,22,,,,,,,,,,,,,,,,,,,,,0.11663810000027297,,,,0.08562119999987772,0.08573880000039935,,,,,,,,,,,,,,,,,,,,,,,,,,,,,,,,,,,,,,,,,,,,,,,,,,,,,,,,,,,,,,,,,,,,,,,,,,,,,,,005,001,2025-01-24_14h13.53.321,NESC3137_N400_exp,2023.2.3,59.993364734189534,2025-01-24 14h15.07.256747 -0400,
chain,0,109,109,29,,,,,,,,,,,,,,,,,,,,,0.11663810000027297,,,,0.0858420999993541,0.0859545999992406,,,,,,,,,,,,,,,,,,,,,,,,,,,,,,,,,,,,,,,,,,,,,,,,,,,,,,,,,,,,,,,,,,,,,,,,,,,,,,,005,001,2025-01-24_14h13.53.321,NESC3137_N400_exp,2023.2.3,59.993364734189534,2025-01-24 14h15.07.256747 -0400,
ring,0,110,110,129,,,,,,,,,,,,,,,,,,,,,0.11663810000027297,,,,0.08603839999886986,0.08615769999960321,,,,,,,,,,,,,,,,,,,,,,,,,,,,,,,,,,,,,,,,,,,,,,,,,,,,,,,,,,,,,,,,,,,,,,,,,,,,,,,005,001,2025-01-24_14h13.53.321,NESC3137_N400_exp,2023.2.3,59.993364734189534,2025-01-24 14h15.07.256747 -0400,
harp,0,111,111,73,,,,,,,,,,,,,,,,,,,,,0.11663810000027297,,,,0.08628979999957664,0.08781019999878481,,,,,,,,,,,,,,,,,,,,,,,,,,,,,,,,,,,,,,,,,,,,,,,,,,,,,,,,,,,,,,,,,,,,,,,,,,,,,,,005,001,2025-01-24_14h13.53.321,NESC3137_N400_exp,2023.2.3,59.993364734189534,2025-01-24 14h15.07.256747 -0400,
mushroom,0,112,112,101,,,,,,,,,,,,,,,,,,,,,0.11663810000027297,,,,0.0879821999988053,0.0881212999993295,,,,,,,,,,,,,,,,,,,,,,,,,,,,,,,,,,,,,,,,,,,,,,,,,,,,,,,,,,,,,,,,,,,,,,,,,,,,,,,005,001,2025-01-24_14h13.53.321,NESC3137_N400_exp,2023.2.3,59.993364734189534,2025-01-24 14h15.07.256747 -0400,
pumpkin,0,113,113,128,,,,,,,,,,,,,,,,,,,,,0.11663810000027297,,,,0.08822349999900325,0.08831449999888719,,,,,,,,,,,,,,,,,,,,,,,,,,,,,,,,,,,,,,,,,,,,,,,,,,,,,,,,,,,,,,,,,,,,,,,,,,,,,,,005,001,2025-01-24_14h13.53.321,NESC3137_N400_exp,2023.2.3,59.993364734189534,2025-01-24 14h15.07.256747 -0400,
chair,0,114,114,30,,,,,,,,,,,,,,,,,,,,,0.11663810000027297,,,,0.08839719999923545,0.08848269999907643,,,,,,,,,,,,,,,,,,,,,,,,,,,,,,,,,,,,,,,,,,,,,,,,,,,,,,,,,,,,,,,,,,,,,,,,,,,,,,,005,001,2025-01-24_14h13.53.321,NESC3137_N400_exp,2023.2.3,59.993364734189534,2025-01-24 14h15.07.256747 -0400,
apple,0,115,115,4,,,,,,,,,,,,,,,,,,,,,0.11663810000027297,,,,0.08857629999874916,0.08868029999939608,,,,,,,,,,,,,,,,,,,,,,,,,,,,,,,,,,,,,,,,,,,,,,,,,,,,,,,,,,,,,,,,,,,,,,,,,,,,,,,005,001,2025-01-24_14h13.53.321,NESC3137_N400_exp,2023.2.3,59.993364734189534,2025-01-24 14h15.07.256747 -0400,
clock,0,116,116,34,,,,,,,,,,,,,,,,,,,,,0.11663810000027297,,,,0.08875989999978628,0.08884589999979653,,,,,,,,,,,,,,,,,,,,,,,,,,,,,,,,,,,,,,,,,,,,,,,,,,,,,,,,,,,,,,,,,,,,,,,,,,,,,,,005,001,2025-01-24_14h13.53.321,NESC3137_N400_exp,2023.2.3,59.993364734189534,2025-01-24 14h15.07.256747 -0400,
sun,0,117,117,152,,,,,,,,,,,,,,,,,,,,,0.11663810000027297,,,,0.08891529999891645,0.08898810000027879,,,,,,,,,,,,,,,,,,,,,,,,,,,,,,,,,,,,,,,,,,,,,,,,,,,,,,,,,,,,,,,,,,,,,,,,,,,,,,,005,001,2025-01-24_14h13.53.321,NESC3137_N400_exp,2023.2.3,59.993364734189534,2025-01-24 14h15.07.256747 -0400,
duck,0,118,118,47,,,,,,,,,,,,,,,,,,,,,0.11663810000027297,,,,0.08909250000033353,0.08921670000017912,,,,,,,,,,,,,,,,,,,,,,,,,,,,,,,,,,,,,,,,,,,,,,,,,,,,,,,,,,,,,,,,,,,,,,,,,,,,,,,005,001,2025-01-24_14h13.53.321,NESC3137_N400_exp,2023.2.3,59.993364734189534,2025-01-24 14h15.07.256747 -0400,
cake,0,119,119,23,,,,,,,,,,,,,,,,,,,,,0.11663810000027297,,,,0.08930779999900551,0.08942120000028808,,,,,,,,,,,,,,,,,,,,,,,,,,,,,,,,,,,,,,,,,,,,,,,,,,,,,,,,,,,,,,,,,,,,,,,,,,,,,,,005,001,2025-01-24_14h13.53.321,NESC3137_N400_exp,2023.2.3,59.993364734189534,2025-01-24 14h15.07.256747 -0400,
lips,0,120,120,94,,,,,,,,,,,,,,,,,,,,,0.11663810000027297,,,,0.0895260999986931,0.08964339999874937,,,,,,,,,,,,,,,,,,,,,,,,,,,,,,,,,,,,,,,,,,,,,,,,,,,,,,,,,,,,,,,,,,,,,,,,,,,,,,,005,001,2025-01-24_14h13.53.321,NESC3137_N400_exp,2023.2.3,59.993364734189534,2025-01-24 14h15.07.256747 -0400,
pig,0,121,121,118,,,,,,,,,,,,,,,,,,,,,0.11663810000027297,,,,0.08972840000024007,0.08984359999885783,,,,,,,,,,,,,,,,,,,,,,,,,,,,,,,,,,,,,,,,,,,,,,,,,,,,,,,,,,,,,,,,,,,,,,,,,,,,,,,005,001,2025-01-24_14h13.53.321,NESC3137_N400_exp,2023.2.3,59.993364734189534,2025-01-24 14h15.07.256747 -0400,
cherry,0,122,122,31,,,,,,,,,,,,,,,,,,,,,0.11663810000027297,,,,0.08992240000043239,0.09001199999875098,,,,,,,,,,,,,,,,,,,,,,,,,,,,,,,,,,,,,,,,,,,,,,,,,,,,,,,,,,,,,,,,,,,,,,,,,,,,,,,005,001,2025-01-24_14h13.53.321,NESC3137_N400_exp,2023.2.3,59.993364734189534,2025-01-24 14h15.07.256747 -0400,
wagon,0,123,123,170,,,,,,,,,,,,,,,,,,,,,0.11663810000027297,,,,0.09008689999973285,0.0901663999993616,,,,,,,,,,,,,,,,,,,,,,,,,,,,,,,,,,,,,,,,,,,,,,,,,,,,,,,,,,,,,,,,,,,,,,,,,,,,,,,005,001,2025-01-24_14h13.53.321,NESC3137_N400_exp,2023.2.3,59.993364734189534,2025-01-24 14h15.07.256747 -0400,
bow,0,124,124,19,,,,,,,,,,,,,,,,,,,,,0.11663810000027297,,,,0.09026059999996505,0.09039999999913562,,,,,,,,,,,,,,,,,,,,,,,,,,,,,,,,,,,,,,,,,,,,,,,,,,,,,,,,,,,,,,,,,,,,,,,,,,,,,,,005,001,2025-01-24_14h13.53.321,NESC3137_N400_exp,2023.2.3,59.993364734189534,2025-01-24 14h15.07.256747 -0400,
giraffe,0,125,125,61,,,,,,,,,,,,,,,,,,,,,0.11663810000027297,,,,0.09049299999969662,0.09062749999975495,,,,,,,,,,,,,,,,,,,,,,,,,,,,,,,,,,,,,,,,,,,,,,,,,,,,,,,,,,,,,,,,,,,,,,,,,,,,,,,005,001,2025-01-24_14h13.53.321,NESC3137_N400_exp,2023.2.3,59.993364734189534,2025-01-24 14h15.07.256747 -0400,
whistle,0,126,126,174,,,,,,,,,,,,,,,,,,,,,0.11663810000027297,,,,0.09076679999998305,0.09089289999974426,,,,,,,,,,,,,,,,,,,,,,,,,,,,,,,,,,,,,,,,,,,,,,,,,,,,,,,,,,,,,,,,,,,,,,,,,,,,,,,005,001,2025-01-24_14h13.53.321,NESC3137_N400_exp,2023.2.3,59.993364734189534,2025-01-24 14h15.07.256747 -0400,
gun,0,127,127,68,,,,,,,,,,,,,,,,,,,,,0.11663810000027297,,,,0.09100489999946149,0.09132549999958428,,,,,,,,,,,,,,,,,,,,,,,,,,,,,,,,,,,,,,,,,,,,,,,,,,,,,,,,,,,,,,,,,,,,,,,,,,,,,,,005,001,2025-01-24_14h13.53.321,NESC3137_N400_exp,2023.2.3,59.993364734189534,2025-01-24 14h15.07.256747 -0400,
banana,0,128,128,9,,,,,,,,,,,,,,,,,,,,,0.11663810000027297,,,,0.09143899999980931,0.09156739999889396,,,,,,,,,,,,,,,,,,,,,,,,,,,,,,,,,,,,,,,,,,,,,,,,,,,,,,,,,,,,,,,,,,,,,,,,,,,,,,,005,001,2025-01-24_14h13.53.321,NESC3137_N400_exp,2023.2.3,59.993364734189534,2025-01-24 14h15.07.256747 -0400,
key,0,129,129,82,,,,,,,,,,,,,,,,,,,,,0.11663810000027297,,,,0.0916629000003013,0.0917872999998508,,,,,,,,,,,,,,,,,,,,,,,,,,,,,,,,,,,,,,,,,,,,,,,,,,,,,,,,,,,,,,,,,,,,,,,,,,,,,,,005,001,2025-01-24_14h13.53.321,NESC3137_N400_exp,2023.2.3,59.993364734189534,2025-01-24 14h15.07.256747 -0400,
leaf,0,130,130,87,,,,,,,,,,,,,,,,,,,,,0.11663810000027297,,,,0.09187509999901522,0.09204329999920446,,,,,,,,,,,,,,,,,,,,,,,,,,,,,,,,,,,,,,,,,,,,,,,,,,,,,,,,,,,,,,,,,,,,,,,,,,,,,,,005,001,2025-01-24_14h13.53.321,NESC3137_N400_exp,2023.2.3,59.993364734189534,2025-01-24 14h15.07.256747 -0400,
window,0,131,131,176,,,,,,,,,,,,,,,,,,,,,0.11663810000027297,,,,0.09215629999926023,0.09225940000033006,,,,,,,,,,,,,,,,,,,,,,,,,,,,,,,,,,,,,,,,,,,,,,,,,,,,,,,,,,,,,,,,,,,,,,,,,,,,,,,005,001,2025-01-24_14h13.53.321,NESC3137_N400_exp,2023.2.3,59.993364734189534,2025-01-24 14h15.07.256747 -0400,
guitar,0,132,132,67,,,,,,,,,,,,,,,,,,,,,0.11663810000027297,,,,0.09234560000004421,0.09243059999971592,,,,,,,,,,,,,,,,,,,,,,,,,,,,,,,,,,,,,,,,,,,,,,,,,,,,,,,,,,,,,,,,,,,,,,,,,,,,,,,005,001,2025-01-24_14h13.53.321,NESC3137_N400_exp,2023.2.3,59.993364734189534,2025-01-24 14h15.07.256747 -0400,
fence,0,133,133,53,,,,,,,,,,,,,,,,,,,,,0.11663810000027297,,,,0.09251330000006419,0.0926049999998213,,,,,,,,,,,,,,,,,,,,,,,,,,,,,,,,,,,,,,,,,,,,,,,,,,,,,,,,,,,,,,,,,,,,,,,,,,,,,,,005,001,2025-01-24_14h13.53.321,NESC3137_N400_exp,2023.2.3,59.993364734189534,2025-01-24 14h15.07.256747 -0400,
basket,0,134,134,11,,,,,,,,,,,,,,,,,,,,,0.11663810000027297,,,,0.09272309999869321,0.09282039999925473,,,,,,,,,,,,,,,,,,,,,,,,,,,,,,,,,,,,,,,,,,,,,,,,,,,,,,,,,,,,,,,,,,,,,,,,,,,,,,,005,001,2025-01-24_14h13.53.321,NESC3137_N400_exp,2023.2.3,59.993364734189534,2025-01-24 14h15.07.256747 -0400,
television,0,135,135,156,,,,,,,,,,,,,,,,,,,,,0.11663810000027297,,,,0.09290329999930691,0.0929826999999932,,,,,,,,,,,,,,,,,,,,,,,,,,,,,,,,,,,,,,,,,,,,,,,,,,,,,,,,,,,,,,,,,,,,,,,,,,,,,,,005,001,2025-01-24_14h13.53.321,NESC3137_N400_exp,2023.2.3,59.993364734189534,2025-01-24 14h15.07.256747 -0400,
doll,0,136,136,43,,,,,,,,,,,,,,,,,,,,,0.11663810000027297,,,,0.09305769999991753,0.09314239999912388,,,,,,,,,,,,,,,,,,,,,,,,,,,,,,,,,,,,,,,,,,,,,,,,,,,,,,,,,,,,,,,,,,,,,,,,,,,,,,,005,001,2025-01-24_14h13.53.321,NESC3137_N400_exp,2023.2.3,59.993364734189534,2025-01-24 14h15.07.256747 -0400,
potato,0,137,137,124,,,,,,,,,,,,,,,,,,,,,0.11663810000027297,,,,0.09321339999951306,0.09328979999918374,,,,,,,,,,,,,,,,,,,,,,,,,,,,,,,,,,,,,,,,,,,,,,,,,,,,,,,,,,,,,,,,,,,,,,,,,,,,,,,005,001,2025-01-24_14h13.53.321,NESC3137_N400_exp,2023.2.3,59.993364734189534,2025-01-24 14h15.07.256747 -0400,
seahorse,0,138,138,137,,,,,,,,,,,,,,,,,,,,,0.11663810000027297,,,,0.09335769999961485,0.09346349999941594,,,,,,,,,,,,,,,,,,,,,,,,,,,,,,,,,,,,,,,,,,,,,,,,,,,,,,,,,,,,,,,,,,,,,,,,,,,,,,,005,001,2025-01-24_14h13.53.321,NESC3137_N400_exp,2023.2.3,59.993364734189534,2025-01-24 14h15.07.256747 -0400,
knife,0,139,139,84,,,,,,,,,,,,,,,,,,,,,0.11663810000027297,,,,0.09353679999912856,0.09366039999986242,,,,,,,,,,,,,,,,,,,,,,,,,,,,,,,,,,,,,,,,,,,,,,,,,,,,,,,,,,,,,,,,,,,,,,,,,,,,,,,005,001,2025-01-24_14h13.53.321,NESC3137_N400_exp,2023.2.3,59.993364734189534,2025-01-24 14h15.07.256747 -0400,
hand,0,140,140,71,,,,,,,,,,,,,,,,,,,,,0.11663810000027297,,,,0.09378089999881922,0.09387289999904169,,,,,,,,,,,,,,,,,,,,,,,,,,,,,,,,,,,,,,,,,,,,,,,,,,,,,,,,,,,,,,,,,,,,,,,,,,,,,,,005,001,2025-01-24_14h13.53.321,NESC3137_N400_exp,2023.2.3,59.993364734189534,2025-01-24 14h15.07.256747 -0400,
crown,0,141,141,39,,,,,,,,,,,,,,,,,,,,,0.11663810000027297,,,,0.09395129999938945,0.09410810000008496,,,,,,,,,,,,,,,,,,,,,,,,,,,,,,,,,,,,,,,,,,,,,,,,,,,,,,,,,,,,,,,,,,,,,,,,,,,,,,,005,001,2025-01-24_14h13.53.321,NESC3137_N400_exp,2023.2.3,59.993364734189534,2025-01-24 14h15.07.256747 -0400,
kettle,0,142,142,81,,,,,,,,,,,,,,,,,,,,,0.11663810000027297,,,,0.09418229999937466,0.09428839999964111,,,,,,,,,,,,,,,,,,,,,,,,,,,,,,,,,,,,,,,,,,,,,,,,,,,,,,,,,,,,,,,,,,,,,,,,,,,,,,,005,001,2025-01-24_14h13.53.321,NESC3137_N400_exp,2023.2.3,59.993364734189534,2025-01-24 14h15.07.256747 -0400,
drum,0,143,143,46,,,,,,,,,,,,,,,,,,,,,0.11663810000027297,,,,0.09435619999931077,0.09444999999868742,,,,,,,,,,,,,,,,,,,,,,,,,,,,,,,,,,,,,,,,,,,,,,,,,,,,,,,,,,,,,,,,,,,,,,,,,,,,,,,005,001,2025-01-24_14h13.53.321,NESC3137_N400_exp,2023.2.3,59.993364734189534,2025-01-24 14h15.07.256747 -0400,
kangaroo,0,144,144,80,,,,,,,,,,,,,,,,,,,,,0.11663810000027297,,,,0.09451379999882192,0.09459919999972044,,,,,,,,,,,,,,,,,,,,,,,,,,,,,,,,,,,,,,,,,,,,,,,,,,,,,,,,,,,,,,,,,,,,,,,,,,,,,,,005,001,2025-01-24_14h13.53.321,NESC3137_N400_exp,2023.2.3,59.993364734189534,2025-01-24 14h15.07.256747 -0400,
helicopter,0,145,145,76,,,,,,,,,,,,,,,,,,,,,0.11663810000027297,,,,0.09466359999896667,0.09475899999961257,,,,,,,,,,,,,,,,,,,,,,,,,,,,,,,,,,,,,,,,,,,,,,,,,,,,,,,,,,,,,,,,,,,,,,,,,,,,,,,005,001,2025-01-24_14h13.53.321,NESC3137_N400_exp,2023.2.3,59.993364734189534,2025-01-24 14h15.07.256747 -0400,
moon,0,146,146,99,,,,,,,,,,,,,,,,,,,,,0.11663810000027297,,,,0.09487669999907666,0.09502129999964382,,,,,,,,,,,,,,,,,,,,,,,,,,,,,,,,,,,,,,,,,,,,,,,,,,,,,,,,,,,,,,,,,,,,,,,,,,,,,,,005,001,2025-01-24_14h13.53.321,NESC3137_N400_exp,2023.2.3,59.993364734189534,2025-01-24 14h15.07.256747 -0400,
boot,0,147,147,18,,,,,,,,,,,,,,,,,,,,,0.11663810000027297,,,,0.09519650000038382,0.09538659999998345,,,,,,,,,,,,,,,,,,,,,,,,,,,,,,,,,,,,,,,,,,,,,,,,,,,,,,,,,,,,,,,,,,,,,,,,,,,,,,,005,001,2025-01-24_14h13.53.321,NESC3137_N400_exp,2023.2.3,59.993364734189534,2025-01-24 14h15.07.256747 -0400,
trafficlight,0,148,148,162,,,,,,,,,,,,,,,,,,,,,0.11663810000027297,,,,0.09553489999962039,0.09571759999926144,,,,,,,,,,,,,,,,,,,,,,,,,,,,,,,,,,,,,,,,,,,,,,,,,,,,,,,,,,,,,,,,,,,,,,,,,,,,,,,005,001,2025-01-24_14h13.53.321,NESC3137_N400_exp,2023.2.3,59.993364734189534,2025-01-24 14h15.07.256747 -0400,
sled,0,149,149,143,,,,,,,,,,,,,,,,,,,,,0.11663810000027297,,,,0.09587230000033742,0.09609649999947578,,,,,,,,,,,,,,,,,,,,,,,,,,,,,,,,,,,,,,,,,,,,,,,,,,,,,,,,,,,,,,,,,,,,,,,,,,,,,,,005,001,2025-01-24_14h13.53.321,NESC3137_N400_exp,2023.2.3,59.993364734189534,2025-01-24 14h15.07.256747 -0400,
lion,0,150,150,93,,,,,,,,,,,,,,,,,,,,,0.11663810000027297,,,,0.0962627999997494,0.09644630000002508,,,,,,,,,,,,,,,,,,,,,,,,,,,,,,,,,,,,,,,,,,,,,,,,,,,,,,,,,,,,,,,,,,,,,,,,,,,,,,,005,001,2025-01-24_14h13.53.321,NESC3137_N400_exp,2023.2.3,59.993364734189534,2025-01-24 14h15.07.256747 -0400,
babycarriage,0,151,151,7,,,,,,,,,,,,,,,,,,,,,0.11663810000027297,,,,0.09660489999987476,0.09683249999943655,,,,,,,,,,,,,,,,,,,,,,,,,,,,,,,,,,,,,,,,,,,,,,,,,,,,,,,,,,,,,,,,,,,,,,,,,,,,,,,005,001,2025-01-24_14h13.53.321,NESC3137_N400_exp,2023.2.3,59.993364734189534,2025-01-24 14h15.07.256747 -0400,
zebra,0,152,152,179,,,,,,,,,,,,,,,,,,,,,0.11663810000027297,,,,0.09697349999987637,0.09722030000011728,,,,,,,,,,,,,,,,,,,,,,,,,,,,,,,,,,,,,,,,,,,,,,,,,,,,,,,,,,,,,,,,,,,,,,,,,,,,,,,005,001,2025-01-24_14h13.53.321,NESC3137_N400_exp,2023.2.3,59.993364734189534,2025-01-24 14h15.07.256747 -0400,
arm,0,153,153,5,,,,,,,,,,,,,,,,,,,,,0.11663810000027297,,,,0.09738730000026408,0.09760889999961364,,,,,,,,,,,,,,,,,,,,,,,,,,,,,,,,,,,,,,,,,,,,,,,,,,,,,,,,,,,,,,,,,,,,,,,,,,,,,,,005,001,2025-01-24_14h13.53.321,NESC3137_N400_exp,2023.2.3,59.993364734189534,2025-01-24 14h15.07.256747 -0400,
peacock,0,154,154,112,,,,,,,,,,,,,,,,,,,,,0.11663810000027297,,,,0.0978090999997221,0.09801129999868863,,,,,,,,,,,,,,,,,,,,,,,,,,,,,,,,,,,,,,,,,,,,,,,,,,,,,,,,,,,,,,,,,,,,,,,,,,,,,,,005,001,2025-01-24_14h13.53.321,NESC3137_N400_exp,2023.2.3,59.993364734189534,2025-01-24 14h15.07.256747 -0400,
lamp,0,155,155,86,,,,,,,,,,,,,,,,,,,,,0.11663810000027297,,,,0.0981735999994271,0.09836840000025404,,,,,,,,,,,,,,,,,,,,,,,,,,,,,,,,,,,,,,,,,,,,,,,,,,,,,,,,,,,,,,,,,,,,,,,,,,,,,,,005,001,2025-01-24_14h13.53.321,NESC3137_N400_exp,2023.2.3,59.993364734189534,2025-01-24 14h15.07.256747 -0400,
tomato,0,156,156,160,,,,,,,,,,,,,,,,,,,,,0.11663810000027297,,,,0.09850949999963632,0.09867010000016307,,,,,,,,,,,,,,,,,,,,,,,,,,,,,,,,,,,,,,,,,,,,,,,,,,,,,,,,,,,,,,,,,,,,,,,,,,,,,,,005,001,2025-01-24_14h13.53.321,NESC3137_N400_exp,2023.2.3,59.993364734189534,2025-01-24 14h15.07.256747 -0400,
rooster,0,157,157,131,,,,,,,,,,,,,,,,,,,,,0.11663810000027297,,,,0.09880630000043311,0.09896479999952135,,,,,,,,,,,,,,,,,,,,,,,,,,,,,,,,,,,,,,,,,,,,,,,,,,,,,,,,,,,,,,,,,,,,,,,,,,,,,,,005,001,2025-01-24_14h13.53.321,NESC3137_N400_exp,2023.2.3,59.993364734189534,2025-01-24 14h15.07.256747 -0400,
orange,0,158,158,105,,,,,,,,,,,,,,,,,,,,,0.11663810000027297,,,,0.09909299999890209,0.09959619999972347,,,,,,,,,,,,,,,,,,,,,,,,,,,,,,,,,,,,,,,,,,,,,,,,,,,,,,,,,,,,,,,,,,,,,,,,,,,,,,,005,001,2025-01-24_14h13.53.321,NESC3137_N400_exp,2023.2.3,59.993364734189534,2025-01-24 14h15.07.256747 -0400,
thimble,0,159,159,158,,,,,,,,,,,,,,,,,,,,,0.11663810000027297,,,,0.09974099999999453,0.09992609999972046,,,,,,,,,,,,,,,,,,,,,,,,,,,,,,,,,,,,,,,,,,,,,,,,,,,,,,,,,,,,,,,,,,,,,,,,,,,,,,,005,001,2025-01-24_14h13.53.321,NESC3137_N400_exp,2023.2.3,59.993364734189534,2025-01-24 14h15.07.256747 -0400,
doorknob,0,160,160,44,,,,,,,,,,,,,,,,,,,,,0.11663810000027297,,,,0.10001269999884244,0.10013090000029479,,,,,,,,,,,,,,,,,,,,,,,,,,,,,,,,,,,,,,,,,,,,,,,,,,,,,,,,,,,,,,,,,,,,,,,,,,,,,,,005,001,2025-01-24_14h13.53.321,NESC3137_N400_exp,2023.2.3,59.993364734189534,2025-01-24 14h15.07.256747 -0400,
mountain,0,161,161,100,,,,,,,,,,,,,,,,,,,,,0.11663810000027297,,,,0.10027649999938149,0.10043029999906139,,,,,,,,,,,,,,,,,,,,,,,,,,,,,,,,,,,,,,,,,,,,,,,,,,,,,,,,,,,,,,,,,,,,,,,,,,,,,,,005,001,2025-01-24_14h13.53.321,NESC3137_N400_exp,2023.2.3,59.993364734189534,2025-01-24 14h15.07.256747 -0400,
pineapple,0,162,162,119,,,,,,,,,,,,,,,,,,,,,0.11663810000027297,,,,0.10057199999937438,0.10073279999960505,,,,,,,,,,,,,,,,,,,,,,,,,,,,,,,,,,,,,,,,,,,,,,,,,,,,,,,,,,,,,,,,,,,,,,,,,,,,,,,005,001,2025-01-24_14h13.53.321,NESC3137_N400_exp,2023.2.3,59.993364734189534,2025-01-24 14h15.07.256747 -0400,
cat,0,163,163,28,,,,,,,,,,,,,,,,,,,,,0.11663810000027297,,,,0.10087399999974878,0.10101649999887741,,,,,,,,,,,,,,,,,,,,,,,,,,,,,,,,,,,,,,,,,,,,,,,,,,,,,,,,,,,,,,,,,,,,,,,,,,,,,,,005,001,2025-01-24_14h13.53.321,NESC3137_N400_exp,2023.2.3,59.993364734189534,2025-01-24 14h15.07.256747 -0400,
seal,0,164,164,138,,,,,,,,,,,,,,,,,,,,,0.11663810000027297,,,,0.10112569999910193,0.10127180000017688,,,,,,,,,,,,,,,,,,,,,,,,,,,,,,,,,,,,,,,,,,,,,,,,,,,,,,,,,,,,,,,,,,,,,,,,,,,,,,,005,001,2025-01-24_14h13.53.321,NESC3137_N400_exp,2023.2.3,59.993364734189534,2025-01-24 14h15.07.256747 -0400,
windmill,0,165,165,175,,,,,,,,,,,,,,,,,,,,,0.11663810000027297,,,,0.10142049999922165,0.10155920000033802,,,,,,,,,,,,,,,,,,,,,,,,,,,,,,,,,,,,,,,,,,,,,,,,,,,,,,,,,,,,,,,,,,,,,,,,,,,,,,,005,001,2025-01-24_14h13.53.321,NESC3137_N400_exp,2023.2.3,59.993364734189534,2025-01-24 14h15.07.256747 -0400,
hair,0,166,166,69,,,,,,,,,,,,,,,,,,,,,0.11663810000027297,,,,0.10169179999866174,0.10181699999884586,,,,,,,,,,,,,,,,,,,,,,,,,,,,,,,,,,,,,,,,,,,,,,,,,,,,,,,,,,,,,,,,,,,,,,,,,,,,,,,005,001,2025-01-24_14h13.53.321,NESC3137_N400_exp,2023.2.3,59.993364734189534,2025-01-24 14h15.07.256747 -0400,
toothbrush,0,167,167,161,,,,,,,,,,,,,,,,,,,,,0.11663810000027297,,,,0.10192199999983131,0.10203249999904074,,,,,,,,,,,,,,,,,,,,,,,,,,,,,,,,,,,,,,,,,,,,,,,,,,,,,,,,,,,,,,,,,,,,,,,,,,,,,,,005,001,2025-01-24_14h13.53.321,NESC3137_N400_exp,2023.2.3,59.993364734189534,2025-01-24 14h15.07.256747 -0400,
sandwich,0,168,168,134,,,,,,,,,,,,,,,,,,,,,0.11663810000027297,,,,0.10215409999909753,0.1022835000003397,,,,,,,,,,,,,,,,,,,,,,,,,,,,,,,,,,,,,,,,,,,,,,,,,,,,,,,,,,,,,,,,,,,,,,,,,,,,,,,005,001,2025-01-24_14h13.53.321,NESC3137_N400_exp,2023.2.3,59.993364734189534,2025-01-24 14h15.07.256747 -0400,
well,0,169,169,172,,,,,,,,,,,,,,,,,,,,,0.11663810000027297,,,,0.10237789999882807,0.10248229999888281,,,,,,,,,,,,,,,,,,,,,,,,,,,,,,,,,,,,,,,,,,,,,,,,,,,,,,,,,,,,,,,,,,,,,,,,,,,,,,,005,001,2025-01-24_14h13.53.321,NESC3137_N400_exp,2023.2.3,59.993364734189534,2025-01-24 14h15.07.256747 -0400,
nail,0,170,170,102,,,,,,,,,,,,,,,,,,,,,0.11663810000027297,,,,0.10260509999898204,0.1027206999988266,,,,,,,,,,,,,,,,,,,,,,,,,,,,,,,,,,,,,,,,,,,,,,,,,,,,,,,,,,,,,,,,,,,,,,,,,,,,,,,005,001,2025-01-24_14h13.53.321,NESC3137_N400_exp,2023.2.3,59.993364734189534,2025-01-24 14h15.07.256747 -0400,
hat,0,171,171,74,,,,,,,,,,,,,,,,,,,,,0.11663810000027297,,,,0.102821499998754,0.10293819999969855,,,,,,,,,,,,,,,,,,,,,,,,,,,,,,,,,,,,,,,,,,,,,,,,,,,,,,,,,,,,,,,,,,,,,,,,,,,,,,,005,001,2025-01-24_14h13.53.321,NESC3137_N400_exp,2023.2.3,59.993364734189534,2025-01-24 14h15.07.256747 -0400,
barrel,0,172,172,10,,,,,,,,,,,,,,,,,,,,,0.11663810000027297,,,,0.10301859999890439,0.10312249999878986,,,,,,,,,,,,,,,,,,,,,,,,,,,,,,,,,,,,,,,,,,,,,,,,,,,,,,,,,,,,,,,,,,,,,,,,,,,,,,,005,001,2025-01-24_14h13.53.321,NESC3137_N400_exp,2023.2.3,59.993364734189534,2025-01-24 14h15.07.256747 -0400,
bicycle,0,173,173,16,,,,,,,,,,,,,,,,,,,,,0.11663810000027297,,,,0.10320279999905324,0.1033343999988574,,,,,,,,,,,,,,,,,,,,,,,,,,,,,,,,,,,,,,,,,,,,,,,,,,,,,,,,,,,,,,,,,,,,,,,,,,,,,,,005,001,2025-01-24_14h13.53.321,NESC3137_N400_exp,2023.2.3,59.993364734189534,2025-01-24 14h15.07.256747 -0400,
stove,0,174,174,149,,,,,,,,,,,,,,,,,,,,,0.11663810000027297,,,,0.10344420000001264,0.10356289999981527,,,,,,,,,,,,,,,,,,,,,,,,,,,,,,,,,,,,,,,,,,,,,,,,,,,,,,,,,,,,,,,,,,,,,,,,,,,,,,,005,001,2025-01-24_14h13.53.321,NESC3137_N400_exp,2023.2.3,59.993364734189534,2025-01-24 14h15.07.256747 -0400,
suitcase,0,175,175,151,,,,,,,,,,,,,,,,,,,,,0.11663810000027297,,,,0.10364899999876798,0.10382319999916945,,,,,,,,,,,,,,,,,,,,,,,,,,,,,,,,,,,,,,,,,,,,,,,,,,,,,,,,,,,,,,,,,,,,,,,,,,,,,,,005,001,2025-01-24_14h13.53.321,NESC3137_N400_exp,2023.2.3,59.993364734189534,2025-01-24 14h15.07.256747 -0400,
goat,0,176,176,64,,,,,,,,,,,,,,,,,,,,,0.11663810000027297,,,,0.10389819999909378,0.10398009999880742,,,,,,,,,,,,,,,,,,,,,,,,,,,,,,,,,,,,,,,,,,,,,,,,,,,,,,,,,,,,,,,,,,,,,,,,,,,,,,,005,001,2025-01-24_14h13.53.321,NESC3137_N400_exp,2023.2.3,59.993364734189534,2025-01-24 14h15.07.256747 -0400,
mitten,0,177,177,97,,,,,,,,,,,,,,,,,,,,,0.11663810000027297,,,,0.10404600000038045,0.10412109999924724,,,,,,,,,,,,,,,,,,,,,,,,,,,,,,,,,,,,,,,,,,,,,,,,,,,,,,,,,,,,,,,,,,,,,,,,,,,,,,,005,001,2025-01-24_14h13.53.321,NESC3137_N400_exp,2023.2.3,59.993364734189534,2025-01-24 14h15.07.256747 -0400,
accordion,0,178,178,0,,,,,,,,,,,,,,,,,,,,,0.11663810000027297,,,,0.10418360000039684,0.1042539999998553,,,,,,,,,,,,,,,,,,,,,,,,,,,,,,,,,,,,,,,,,,,,,,,,,,,,,,,,,,,,,,,,,,,,,,,,,,,,,,,005,001,2025-01-24_14h13.53.321,NESC3137_N400_exp,2023.2.3,59.993364734189534,2025-01-24 14h15.07.256747 -0400,
shoe,0,179,179,140,,,,,,,,,,,,,,,,,,,,,0.11663810000027297,,,,0.10431769999922835,0.10441979999995965,,,,,,,,,,,,,,,,,,,,,,,,,,,,,,,,,,,,,,,,,,,,,,,,,,,,,,,,,,,,,,,,,,,,,,,,,,,,,,,005,001,2025-01-24_14h13.53.321,NESC3137_N400_exp,2023.2.3,59.993364734189534,2025-01-24 14h15.07.256747 -0400,
,,,,,0,0,0,0,,,,,,,,,,,,,,,,,0.11663810000027297,,,,,,0.10471849999885308,0.10504439999931492,,,,,,,,,,,,,,,,,,,,,,,,,,,,,,,,,,,,,,,,,,,,,,,,,,,,,,,,,,,,,,,,,,,,,,,,,,,,,005,001,2025-01-24_14h13.53.321,NESC3137_N400_exp,2023.2.3,59.993364734189534,2025-01-24 14h15.07.256747 -0400,
,,,,,,,,,,,,,,,,,,,,,,,,,,,,,,,,,0.10506639999948675,0.11663810000027297,0.11663810000027297,26.00238139999965,space,25.878039199998966,None,,,,,,,,,,,,,,,,,,,,,,,,,,,,,,,,,,,,,,,,,,,,,,,,,,,,,,,,,,,,,,,,,,,,,,005,001,2025-01-24_14h13.53.321,NESC3137_N400_exp,2023.2.3,59.993364734189534,2025-01-24 14h15.07.256747 -0400,
,,,,,,,,,0,0,0,0,,,,,,,,,,,,,26.018289100000402,,,,,,,,,,,,,,,26.002963999999338,26.018289100000402,26.518311199999516,26.501829099999668,26.50183709999874,26.5181134699993,27.00206529999923,28.503614799999923,28.488114800000403,28.488128400000278,29.60538219999944,29.60538219999944,31.007442099999025,button,resources/stimuli/button_foil.wav,right,right,1,1389.5999000014854,right,1,1.3895999000014854,None,,,,,,,,,,,,,,,,,,,,,,,,,,,,,,,,,,,,,,,,,,,,,,,005,001,2025-01-24_14h13.53.321,NESC3137_N400_exp,2023.2.3,59.993364734189534,2025-01-24 14h15.07.256747 -0400,
,,,,,,,,,1,0,1,0,,,,,,,,,,,,,31.023398699999234,,,,,,,,,,,,,,,31.008580099998653,31.023398699999234,31.524238500000138,31.50682389999929,31.506834800000433,31.52307516999972,32.024236799999926,33.52502710000044,33.509019699999044,33.509030999999595,34.61021929999879,34.61021929999879,35.26185590000023,violin,resources/stimuli/violin.wav,left,left,1,640.0596000003134,left,1,0.6400596000003134,None,,,,,,,,,,,,,,,,,,,,,,,,,,,,,,,,,,,,,,,,,,,,,,,005,001,2025-01-24_14h13.53.321,NESC3137_N400_exp,2023.2.3,59.993364734189534,2025-01-24 14h15.07.256747 -0400,
,,,,,,,,,2,0,2,0,,,,,,,,,,,,,35.277353100000255,,,,,,,,,,,,,,,35.26284029999988,35.277353100000255,35.7777176999989,35.76122140000007,35.76122899999973,35.777522669999236,36.27781639999921,37.779449300000124,37.76328639999883,37.76329520000036,38.86461260000033,38.86461260000033,39.44937039999968,lemon,resources/stimuli/lemon_foil.wav,right,right,1,577.7576999989833,right,1,0.5777576999989833,None,,,,,,,,,,,,,,,,,,,,,,,,,,,,,,,,,,,,,,,,,,,,,,,005,001,2025-01-24_14h13.53.321,NESC3137_N400_exp,2023.2.3,59.993364734189534,2025-01-24 14h15.07.256747 -0400,
,,,,,,,,,3,0,3,0,,,,,,,,,,,,,39.46426950000023,,,,,,,,,,,,,,,39.450265800000125,39.46426950000023,39.96542839999893,39.94869819999985,39.94871020000028,39.96500417000025,40.46551790000012,41.96692199999961,41.95077619999938,41.950785499999256,43.0524304999999,43.0524304999999,43.61991019999914,pot,resources/stimuli/pot.wav,left,left,1,566.3051000010455,left,1,0.5663051000010455,None,,,,,,,,,,,,,,,,,,,,,,,,,,,,,,,,,,,,,,,,,,,,,,,005,001,2025-01-24_14h13.53.321,NESC3137_N400_exp,2023.2.3,59.993364734189534,2025-01-24 14h15.07.256747 -0400,
,,,,,,,,,4,0,4,0,,,,,,,,,,,,,43.63521070000024,,,,,,,,,,,,,,,43.6208002000003,43.63521070000024,44.13579000000027,44.11944179999955,44.119450099999085,44.13573446999872,44.623251699998946,46.137767899999744,46.12161360000027,46.12163270000019,47.22282710000036,47.22282710000036,47.65742449999925,television,resources/stimuli/television_foil.wav,right,right,1,428.27570000008564,right,1,0.42827570000008564,None,,,,,,,,,,,,,,,,,,,,,,,,,,,,,,,,,,,,,,,,,,,,,,,005,001,2025-01-24_14h13.53.321,NESC3137_N400_exp,2023.2.3,59.993364734189534,2025-01-24 14h15.07.256747 -0400,
,,,,,,,,,5,0,5,0,,,,,,,,,,,,,47.67315979999876,,,,,,,,,,,,,,,47.65830889999961,47.67315979999876,48.17322309999872,48.15747879999981,48.157487200000105,48.173731970000155,48.67366559999937,50.1751938999987,50.15962359999867,50.15963609999926,51.260279199999786,51.260279199999786,51.61140779999914,tomato,resources/stimuli/tomato_foil.wav,right,right,1,341.9895999995788,right,1,0.3419895999995788,None,,,,,,,,,,,,,,,,,,,,,,,,,,,,,,,,,,,,,,,,,,,,,,,005,001,2025-01-24_14h13.53.321,NESC3137_N400_exp,2023.2.3,59.993364734189534,2025-01-24 14h15.07.256747 -0400,
,,,,,,,,,6,0,6,0,,,,,,,,,,,,,51.62656739999875,,,,,,,,,,,,,,,51.612997299998824,51.62656739999875,52.12714489999962,52.110843999998906,52.11085509999975,52.1271166700004,52.627649299998666,54.12906440000006,54.11341209999955,54.11342919999879,55.21413009999924,55.21413009999924,55.59845259999929,cigarette,resources/stimuli/cigarette_foil.wav,right,right,1,372.83839999872725,right,1,0.37283839999872725,None,,,,,,,,,,,,,,,,,,,,,,,,,,,,,,,,,,,,,,,,,,,,,,,005,001,2025-01-24_14h13.53.321,NESC3137_N400_exp,2023.2.3,59.993364734189534,2025-01-24 14h15.07.256747 -0400,
,,,,,,,,,7,0,7,0,,,,,,,,,,,,,55.61389699999927,,,,,,,,,,,,,,,55.59936759999982,55.61389699999927,56.11431839999932,56.098240199999054,56.0982501999988,56.11444377000007,56.5981111000001,58.09967449999931,58.0836664999988,58.08367499999986,59.201374500000384,59.201374500000384,59.619307999999364,grapes,resources/stimuli/grapes.wav,left,left,1,409.21549999984563,left,1,0.40921549999984563,None,,,,,,,,,,,,,,,,,,,,,,,,,,,,,,,,,,,,,,,,,,,,,,,005,001,2025-01-24_14h13.53.321,NESC3137_N400_exp,2023.2.3,59.993364734189534,2025-01-24 14h15.07.256747 -0400,
,,,,,,,,,8,0,8,0,,,,,,,,,,,,,59.63474159999896,,,,,,,,,,,,,,,59.62024930000007,59.63474159999896,60.135050999999294,60.11963309999919,60.119641799999954,60.135956570000054,60.61888220000037,62.120596200000364,62.104338899998766,62.10435289999987,63.22219070000028,63.22219070000028,63.64010539999981,book,resources/stimuli/book.wav,left,left,1,412.39759999916714,left,1,0.41239759999916714,None,,,,,,,,,,,,,,,,,,,,,,,,,,,,,,,,,,,,,,,,,,,,,,,005,001,2025-01-24_14h13.53.321,NESC3137_N400_exp,2023.2.3,59.993364734189534,2025-01-24 14h15.07.256747 -0400,
,,,,,,,,,9,0,9,0,,,,,,,,,,,,,63.65594450000026,,,,,,,,,,,,,,,63.64142119999997,63.65594450000026,64.1562417999994,64.13983399999961,64.13984159999927,64.1559186699993,64.63974989999952,66.14113650000036,66.12577710000005,66.12578539999959,67.24348490000011,67.24348490000011,67.6441863,harp,resources/stimuli/harp.wav,left,left,1,391.49800000086543,left,1,0.39149800000086543,None,,,,,,,,,,,,,,,,,,,,,,,,,,,,,,,,,,,,,,,,,,,,,,,005,001,2025-01-24_14h13.53.321,NESC3137_N400_exp,2023.2.3,59.993364734189534,2025-01-24 14h15.07.256747 -0400,
,,,,,,,,,10,0,10,0,,,,,,,,,,,,,67.65933539999969,,,,,,,,,,,,,,,67.645045199999,67.65933539999969,68.15980109999873,68.14407399999982,68.14408159999948,68.16037356999877,68.66047499999877,70.16183799999999,70.14642230000027,70.14644339999904,71.24682690000009,71.24682690000009,71.5981871999993,stove,resources/stimuli/stove.wav,left,left,1,347.81549999934214,left,1,0.34781549999934214,None,,,,,,,,,,,,,,,,,,,,,,,,,,,,,,,,,,,,,,,,,,,,,,,005,001,2025-01-24_14h13.53.321,NESC3137_N400_exp,2023.2.3,59.993364734189534,2025-01-24 14h15.07.256747 -0400,
,,,,,,,,,11,0,11,0,,,,,,,,,,,,,71.61314909999965,,,,,,,,,,,,,,,71.59930949999944,71.61314909999965,72.11367379999865,72.09759959999974,72.09760689999894,72.11370406999922,72.61430819999987,74.11572270000033,74.09958220000044,74.09959139999955,75.20076840000002,75.20076840000002,75.48522479999883,fox,resources/stimuli/fox.wav,left,left,1,274.2095000012341,left,1,0.2742095000012341,None,,,,,,,,,,,,,,,,,,,,,,,,,,,,,,,,,,,,,,,,,,,,,,,005,001,2025-01-24_14h13.53.321,NESC3137_N400_exp,2023.2.3,59.993364734189534,2025-01-24 14h15.07.256747 -0400,
,,,,,,,,,12,0,12,0,,,,,,,,,,,,,75.50095130000045,,,,,,,,,,,,,,,75.48610819999885,75.50095130000045,76.00355750000017,75.98495709999952,75.98497729999872,76.00100856999924,76.48545059999924,77.98638109999956,77.97066209999866,77.97067239999888,79.08797159999995,79.08797159999995,79.52283700000044,pumpkin,resources/stimuli/pumpkin.wav,left,left,1,419.0504999987752,left,1,0.4190504999987752,None,,,,,,,,,,,,,,,,,,,,,,,,,,,,,,,,,,,,,,,,,,,,,,,005,001,2025-01-24_14h13.53.321,NESC3137_N400_exp,2023.2.3,59.993364734189534,2025-01-24 14h15.07.256747 -0400,
,,,,,,,,,13,0,13,0,,,,,,,,,,,,,79.53764969999975,,,,,,,,,,,,,,,79.52387590000035,79.53764969999975,80.03841169999941,80.02197779999915,80.02198599999974,80.03821466999906,80.5389224999999,82.04033009999876,82.02465999999913,82.0246690999993,83.125156099999,83.125156099999,84.01046449999922,doll,resources/stimuli/doll_foil.wav,right,right,1,869.4262999997591,right,1,0.8694262999997591,None,,,,,,,,,,,,,,,,,,,,,,,,,,,,,,,,,,,,,,,,,,,,,,,005,001,2025-01-24_14h13.53.321,NESC3137_N400_exp,2023.2.3,59.993364734189534,2025-01-24 14h15.07.256747 -0400,
,,,,,,,,,14,0,14,0,,,,,,,,,,,,,84.02565990000039,,,,,,,,,,,,,,,84.01161469999897,84.02565990000039,84.52624169999945,84.50991160000012,84.50991929999873,84.52622486999971,85.02669889999925,86.52891529999943,86.5118894999996,86.51189820000036,87.61320630000046,87.61320630000046,88.33098889999928,star,resources/stimuli/star_foil.wav,right,right,1,702.1776999990834,right,1,0.7021776999990834,None,,,,,,,,,,,,,,,,,,,,,,,,,,,,,,,,,,,,,,,,,,,,,,,005,001,2025-01-24_14h13.53.321,NESC3137_N400_exp,2023.2.3,59.993364734189534,2025-01-24 14h15.07.256747 -0400,
,,,,,,,,,15,0,15,0,,,,,,,,,,,,,88.34658779999882,,,,,,,,,,,,,,,88.33194939999885,88.34658779999882,88.84714429999985,88.8306706000003,88.83068149999963,88.84696246999883,89.33105419999993,90.83259030000045,90.81667779999952,90.81668669999999,91.93492510000033,91.93492510000033,92.65251329999955,tiger,resources/stimuli/tiger_foil.wav,right,right,1,715.6769000011991,right,1,0.7156769000011991,None,,,,,,,,,,,,,,,,,,,,,,,,,,,,,,,,,,,,,,,,,,,,,,,005,001,2025-01-24_14h13.53.321,NESC3137_N400_exp,2023.2.3,59.993364734189534,2025-01-24 14h15.07.256747 -0400,
,,,,,,,,,16,0,16,0,,,,,,,,,,,,,92.66769079999904,,,,,,,,,,,,,,,92.65339569999924,92.66769079999904,93.16823079999995,93.15220169999884,93.15220989999943,93.16852806999995,93.6693753999989,95.170265499999,95.15456879999874,95.15458339999896,96.25520879999931,96.25520879999931,96.7229372999991,tennisracket,resources/stimuli/tennisracket_foil.wav,right,right,1,459.57020000059856,right,1,0.45957020000059856,None,,,,,,,,,,,,,,,,,,,,,,,,,,,,,,,,,,,,,,,,,,,,,,,005,001,2025-01-24_14h13.53.321,NESC3137_N400_exp,2023.2.3,59.993364734189534,2025-01-24 14h15.07.256747 -0400,
,,,,,,,,,17,0,17,0,,,,,,,,,,,,,96.7383080999989,,,,,,,,,,,,,,,96.72383049999917,96.7383080999989,97.23905969999942,97.22244080000019,97.22244870000031,97.2387634700004,97.72274689999904,99.22427160000007,99.20849499999895,99.20851219999895,100.3260193999995,100.3260193999995,100.7603667000003,peacock,resources/stimuli/peacock.wav,left,left,1,420.52499999954307,left,1,0.42052499999954307,None,,,,,,,,,,,,,,,,,,,,,,,,,,,,,,,,,,,,,,,,,,,,,,,005,001,2025-01-24_14h13.53.321,NESC3137_N400_exp,2023.2.3,59.993364734189534,2025-01-24 14h15.07.256747 -0400,
,,,,,,,,,18,0,18,0,,,,,,,,,,,,,100.7757273999996,,,,,,,,,,,,,,,100.76141370000005,100.7757273999996,101.27631279999878,101.26086939999914,101.26088530000015,101.27715336999935,101.7606797999997,103.26144679999925,103.24551659999997,103.24552519999997,104.36332369999946,104.36332369999946,104.88134589999936,suitcase,resources/stimuli/suitcase.wav,left,left,1,503.33670000145503,left,1,0.503336700001455,None,,,,,,,,,,,,,,,,,,,,,,,,,,,,,,,,,,,,,,,,,,,,,,,005,001,2025-01-24_14h13.53.321,NESC3137_N400_exp,2023.2.3,59.993364734189534,2025-01-24 14h15.07.256747 -0400,
,,,,,,,,,19,0,19,0,,,,,,,,,,,,,104.89649529999951,,,,,,,,,,,,,,,104.8822925000004,104.89649529999951,105.39690559999872,105.38064529999974,105.3806525,105.39694437000034,105.88089670000045,107.382227099999,107.36590909999904,107.36592790000032,108.48392559999957,108.48392559999957,108.86836330000006,garbagecan,resources/stimuli/garbagecan.wav,left,left,1,375.2103000006173,left,1,0.3752103000006173,None,,,,,,,,,,,,,,,,,,,,,,,,,,,,,,,,,,,,,,,,,,,,,,,005,001,2025-01-24_14h13.53.321,NESC3137_N400_exp,2023.2.3,59.993364734189534,2025-01-24 14h15.07.256747 -0400,
,,,,,,,,,20,0,20,0,,,,,,,,,,,,,108.88383429999885,,,,,,,,,,,,,,,108.86922149999918,108.88383429999885,109.38446959999965,109.36845770000036,109.36846569999943,109.38475006999906,109.86880709999969,111.36972160000005,111.35349159999896,111.35349949999909,112.47122499999932,112.47122499999932,112.87290869999924,horse,resources/stimuli/horse_foil.wav,right,right,1,395.389500001329,right,1,0.395389500001329,None,,,,,,,,,,,,,,,,,,,,,,,,,,,,,,,,,,,,,,,,,,,,,,,005,001,2025-01-24_14h13.53.321,NESC3137_N400_exp,2023.2.3,59.993364734189534,2025-01-24 14h15.07.256747 -0400,
,,,,,,,,,21,0,21,0,,,,,,,,,,,,,112.88766829999986,,,,,,,,,,,,,,,112.87388660000033,112.88766829999986,113.38839179999923,113.37280439999995,113.3728130999989,113.38903956999965,113.88907599999948,115.3903795999995,115.37395979999928,115.37396929999886,116.47536679999939,116.47536679999939,117.11074059999919,goat,resources/stimuli/goat.wav,left,left,1,623.8553000002867,left,1,0.6238553000002867,None,,,,,,,,,,,,,,,,,,,,,,,,,,,,,,,,,,,,,,,,,,,,,,,005,001,2025-01-24_14h13.53.321,NESC3137_N400_exp,2023.2.3,59.993364734189534,2025-01-24 14h15.07.256747 -0400,
,,,,,,,,,22,0,22,0,,,,,,,,,,,,,117.12520989999939,,,,,,,,,,,,,,,117.11164370000006,117.12520989999939,117.62580609999895,117.60946209999929,117.60947269999997,117.62571177000027,118.12646909999967,119.62834279999879,119.61163250000027,119.61164089999875,120.71304969999983,120.71304969999983,121.0481777999994,sheep,resources/stimuli/sheep_foil.wav,right,right,1,329.3468000010762,right,1,0.3293468000010762,None,,,,,,,,,,,,,,,,,,,,,,,,,,,,,,,,,,,,,,,,,,,,,,,005,001,2025-01-24_14h13.53.321,NESC3137_N400_exp,2023.2.3,59.993364734189534,2025-01-24 14h15.07.256747 -0400,
,,,,,,,,,23,0,23,0,,,,,,,,,,,,,121.0625029999992,,,,,,,,,,,,,,,121.04923859999872,121.0625029999992,121.5632499000003,121.54699629999959,121.54700930000035,121.56321156999874,122.06388969999898,123.56502509999882,123.54880330000015,123.54881179999938,124.65012699999897,124.65012699999897,124.98447990000022,piano,resources/stimuli/piano.wav,left,left,1,320.4442999995081,left,1,0.3204442999995081,None,,,,,,,,,,,,,,,,,,,,,,,,,,,,,,,,,,,,,,,,,,,,,,,005,001,2025-01-24_14h13.53.321,NESC3137_N400_exp,2023.2.3,59.993364734189534,2025-01-24 14h15.07.256747 -0400,
,,,,,,,,,24,0,24,0,,,,,,,,,,,,,124.99994289999995,,,,,,,,,,,,,,,124.9853480999991,124.99994289999995,125.50043849999929,125.48416629999883,125.48418039999888,125.50038187000027,125.98434470000029,127.4856581999993,127.47007499999927,127.47008619999906,128.5875533999988,128.5875533999988,128.85566479999943,flag,resources/stimuli/flag_foil.wav,right,right,1,263.4892999994918,right,1,0.2634892999994918,None,,,,,,,,,,,,,,,,,,,,,,,,,,,,,,,,,,,,,,,,,,,,,,,005,001,2025-01-24_14h13.53.321,NESC3137_N400_exp,2023.2.3,59.993364734189534,2025-01-24 14h15.07.256747 -0400,
,,,,,,,,,25,0,25,0,,,,,,,,,,,,,128.87037880000025,,,,,,,,,,,,,,,128.85654570000042,128.87037880000025,129.37172959999953,129.3546093999994,129.35462349999943,129.37090686999872,129.87137099999927,131.37297059999946,131.35675529999935,131.35676439999952,132.45813799999996,132.45813799999996,132.95991049999975,arm,resources/stimuli/arm_foil.wav,right,right,1,488.98299999927985,right,1,0.48898299999927985,None,,,,,,,,,,,,,,,,,,,,,,,,,,,,,,,,,,,,,,,,,,,,,,,005,001,2025-01-24_14h13.53.321,NESC3137_N400_exp,2023.2.3,59.993364734189534,2025-01-24 14h15.07.256747 -0400,
,,,,,,,,,26,0,26,0,,,,,,,,,,,,,132.97442109999974,,,,,,,,,,,,,,,132.96087859999898,132.97442109999974,133.47544299999936,133.45878999999877,133.45879810000042,133.47503196999932,133.97629899999993,135.47693569999865,135.46088389999932,135.46090379999987,136.56188929999917,136.56188929999917,137.06368529999963,mitten,resources/stimuli/mitten_foil.wav,right,right,1,497.0898000010493,right,1,0.4970898000010493,None,,,,,,,,,,,,,,,,,,,,,,,,,,,,,,,,,,,,,,,,,,,,,,,005,001,2025-01-24_14h13.53.321,NESC3137_N400_exp,2023.2.3,59.993364734189534,2025-01-24 14h15.07.256747 -0400,
,,,,,,,,,27,0,27,0,,,,,,,,,,,,,137.07866789999935,,,,,,,,,,,,,,,137.0645786999994,137.07866789999935,137.57983160000003,137.56287940000038,137.56288689999928,137.57923766999883,138.08016510000016,139.5811763999991,139.56542059999992,139.5654330999987,140.6659968999993,140.6659968999993,141.03385629999866,squirrel,resources/stimuli/squirrel.wav,left,left,1,352.29509999953734,left,1,0.35229509999953734,None,,,,,,,,,,,,,,,,,,,,,,,,,,,,,,,,,,,,,,,,,,,,,,,005,001,2025-01-24_14h13.53.321,NESC3137_N400_exp,2023.2.3,59.993364734189534,2025-01-24 14h15.07.256747 -0400,
,,,,,,,,,28,0,28,0,,,,,,,,,,,,,141.04918449999968,,,,,,,,,,,,,,,141.0347817999991,141.04918449999968,141.54974849999962,141.5334442000003,141.5334509000004,141.54970966999971,142.03428069999973,143.53504079999948,143.51902080000036,143.5190392000004,144.63678049999908,144.63678049999908,145.2215784,corn,resources/stimuli/corn_foil.wav,right,right,1,581.9489999994403,right,1,0.5819489999994403,None,,,,,,,,,,,,,,,,,,,,,,,,,,,,,,,,,,,,,,,,,,,,,,,005,001,2025-01-24_14h13.53.321,NESC3137_N400_exp,2023.2.3,59.993364734189534,2025-01-24 14h15.07.256747 -0400,
,,,,,,,,,29,0,29,0,,,,,,,,,,,,,145.2366662000004,,,,,,,,,,,,,,,145.22256199999902,145.2366662000004,145.73745489999965,145.7217168999996,145.72172709999904,145.73798947000031,146.23769749999883,147.7397519999995,147.72293600000012,147.72295180000037,148.82419870000012,148.82419870000012,149.27546830000028,wrench,resources/stimuli/wrench_foil.wav,right,right,1,450.71810000081314,right,1,0.45071810000081314,None,,,,,,,,,,,,,,,,,,,,,,,,,,,,,,,,,,,,,,,,,,,,,,,005,001,2025-01-24_14h13.53.321,NESC3137_N400_exp,2023.2.3,59.993364734189534,2025-01-24 14h15.07.256747 -0400,
,,,,,,,,,30,0,30,0,,,,,,,,,,,,,149.29151289999936,,,,,,,,,,,,,,,149.2763630999998,149.29151289999936,149.79152160000012,149.775577299999,149.77558399999907,149.7918425699987,150.27517179999995,151.77673700000014,151.76042609999968,151.76043430000027,152.87830209999993,152.87830209999993,153.27946359999987,guitar,resources/stimuli/guitar_foil.wav,right,right,1,389.10240000041085,right,1,0.38910240000041085,None,,,,,,,,,,,,,,,,,,,,,,,,,,,,,,,,,,,,,,,,,,,,,,,005,001,2025-01-24_14h13.53.321,NESC3137_N400_exp,2023.2.3,59.993364734189534,2025-01-24 14h15.07.256747 -0400,
,,,,,,,,,31,0,31,0,,,,,,,,,,,,,153.29481010000018,,,,,,,,,,,,,,,153.28041719999965,153.29481010000018,153.79524589999892,153.77940669999953,153.77942330000042,153.7954419699996,154.27922489999946,155.7817791999987,155.76450549999936,155.76451429999906,156.88229929999943,156.88229929999943,157.55045529999916,pitcher,resources/stimuli/pitcher.wav,left,left,1,656.3290000012785,left,1,0.6563290000012785,None,,,,,,,,,,,,,,,,,,,,,,,,,,,,,,,,,,,,,,,,,,,,,,,005,001,2025-01-24_14h13.53.321,NESC3137_N400_exp,2023.2.3,59.993364734189534,2025-01-24 14h15.07.256747 -0400,
,,,,,,,,,32,0,32,0,,,,,,,,,,,,,157.5657787,,,,,,,,,,,,,,,157.55136560000028,157.5657787,158.06627049999952,158.0507101000003,158.05072389999987,158.06692276999965,158.55021189999934,160.05156050000005,160.03533199999947,160.03534670000045,161.15380339999865,161.15380339999865,161.52119099999982,seal,resources/stimuli/seal_foil.wav,right,right,1,352.49189999922237,right,1,0.35249189999922237,None,,,,,,,,,,,,,,,,,,,,,,,,,,,,,,,,,,,,,,,,,,,,,,,005,001,2025-01-24_14h13.53.321,NESC3137_N400_exp,2023.2.3,59.993364734189534,2025-01-24 14h15.07.256747 -0400,
,,,,,,,,,33,0,33,0,,,,,,,,,,,,,161.53658480000013,,,,,,,,,,,,,,,161.5220730000001,161.53658480000013,162.03684760000033,162.0204560000002,162.02046289999998,162.03679256999894,162.52093819999936,164.02236819999962,164.00632829999995,164.00634170000012,165.12402610000026,165.12402610000026,165.72527699999955,envelope,resources/stimuli/envelope.wav,left,left,1,599.3142000006628,left,1,0.5993142000006628,None,,,,,,,,,,,,,,,,,,,,,,,,,,,,,,,,,,,,,,,,,,,,,,,005,001,2025-01-24_14h13.53.321,NESC3137_N400_exp,2023.2.3,59.993364734189534,2025-01-24 14h15.07.256747 -0400,
,,,,,,,,,34,0,34,0,,,,,,,,,,,,,165.74067939999986,,,,,,,,,,,,,,,165.7261953999987,165.74067939999986,166.24125339999955,166.2248284999987,166.22483499999908,166.2411561699988,166.7248144999994,168.2263982000004,168.2105733999997,168.2105864999994,169.3281767999997,169.3281767999997,169.96334699999898,swan,resources/stimuli/swan_foil.wav,right,right,1,618.5657999994874,right,1,0.6185657999994874,None,,,,,,,,,,,,,,,,,,,,,,,,,,,,,,,,,,,,,,,,,,,,,,,005,001,2025-01-24_14h13.53.321,NESC3137_N400_exp,2023.2.3,59.993364734189534,2025-01-24 14h15.07.256747 -0400,
,,,,,,,,,35,0,35,0,,,,,,,,,,,,,169.9782525999999,,,,,,,,,,,,,,,169.96422119999988,169.9782525999999,170.47864639999898,170.4623290999989,170.4623363999999,170.47863336999907,170.97910899999988,172.48067959999935,172.46451259999958,172.46452239999962,173.5662511999999,173.5662511999999,174.01673010000013,well,resources/stimuli/well_foil.wav,right,right,1,436.67739999909827,right,1,0.43667739999909827,None,,,,,,,,,,,,,,,,,,,,,,,,,,,,,,,,,,,,,,,,,,,,,,,005,001,2025-01-24_14h13.53.321,NESC3137_N400_exp,2023.2.3,59.993364734189534,2025-01-24 14h15.07.256747 -0400,
,,,,,,,,,36,0,36,0,,,,,,,,,,,,,174.03221769999982,,,,,,,,,,,,,,,174.01761559999977,174.03221769999982,174.53255109999918,174.51668040000004,174.51668939999945,174.53287746999885,175.01648399999976,176.51784289999887,176.50197069999922,176.50198139999884,177.61981699999887,177.61981699999887,178.10418369999934,cherry,resources/stimuli/cherry_foil.wav,right,right,1,478.66760000033537,right,1,0.47866760000033537,None,,,,,,,,,,,,,,,,,,,,,,,,,,,,,,,,,,,,,,,,,,,,,,,005,001,2025-01-24_14h13.53.321,NESC3137_N400_exp,2023.2.3,59.993364734189534,2025-01-24 14h15.07.256747 -0400,
,,,,,,,,,37,0,37,0,,,,,,,,,,,,,178.1195114000002,,,,,,,,,,,,,,,178.1051905000004,178.1195114000002,178.62032089999957,178.60366629999953,178.60367330000008,178.61999907000026,179.10429579999982,180.60533740000028,180.58933249999973,180.58934119999867,181.70720719999917,181.70720719999917,182.20907859999897,accordion,resources/stimuli/accordion.wav,left,left,1,487.9056000008859,left,1,0.4879056000008859,None,,,,,,,,,,,,,,,,,,,,,,,,,,,,,,,,,,,,,,,,,,,,,,,005,001,2025-01-24_14h13.53.321,NESC3137_N400_exp,2023.2.3,59.993364734189534,2025-01-24 14h15.07.256747 -0400,
,,,,,,,,,38,0,38,0,,,,,,,,,,,,,182.22379699999874,,,,,,,,,,,,,,,182.20997759999955,182.22379699999874,182.7242626999996,182.70790999999917,182.70791699999972,182.72419276999935,183.2248082999995,184.72611870000037,184.70991870000034,184.70992769999975,185.81133239999872,185.81133239999872,186.24577189999945,wagon,resources/stimuli/wagon.wav,left,left,1,423.3089999997901,left,1,0.4233089999997901,None,,,,,,,,,,,,,,,,,,,,,,,,,,,,,,,,,,,,,,,,,,,,,,,005,001,2025-01-24_14h13.53.321,NESC3137_N400_exp,2023.2.3,59.993364734189534,2025-01-24 14h15.07.256747 -0400,
,,,,,,,,,39,0,39,0,,,,,,,,,,,,,186.26128400000016,,,,,,,,,,,,,,,186.2467044999994,186.26128400000016,186.76155239999935,186.74547489999895,186.74549169999955,186.76171866999866,187.2457188999997,188.74691960000018,188.73080329999902,188.73081230000025,189.8487699999987,189.8487699999987,190.24985729999935,cloud,resources/stimuli/cloud.wav,left,left,1,385.49849999981234,left,1,0.38549849999981234,None,,,,,,,,,,,,,,,,,,,,,,,,,,,,,,,,,,,,,,,,,,,,,,,005,001,2025-01-24_14h13.53.321,NESC3137_N400_exp,2023.2.3,59.993364734189534,2025-01-24 14h15.07.256747 -0400,
,,,,,,,,,40,0,40,0,,,,,,,,,,,,,190.2652380999989,,,,,,,,,,,,,,,190.2507274999989,190.2652380999989,190.76667850000013,190.7493932999987,190.74940160000006,190.76566426999997,191.24957399999948,192.7512802000001,192.73460299999897,192.7346125999993,193.85260219999873,193.85260219999873,194.38731089999965,giraffe,resources/stimuli/giraffe.wav,left,left,1,518.1368000012299,left,1,0.5181368000012299,None,,,,,,,,,,,,,,,,,,,,,,,,,,,,,,,,,,,,,,,,,,,,,,,005,001,2025-01-24_14h13.53.321,NESC3137_N400_exp,2023.2.3,59.993364734189534,2025-01-24 14h15.07.256747 -0400,
,,,,,,,,,41,0,41,0,,,,,,,,,,,,,194.40247799999997,,,,,,,,,,,,,,,194.38825989999896,194.40247799999997,194.9030831,194.88686269999926,194.88687070000015,194.9031263699995,195.38681460000043,196.88854340000034,196.87204699999893,196.87205580000045,197.9899845,197.9899845,198.2915309,anchor,resources/stimuli/anchor.wav,left,left,1,300.81609999979264,left,1,0.30081609999979264,None,,,,,,,,,,,,,,,,,,,,,,,,,,,,,,,,,,,,,,,,,,,,,,,005,001,2025-01-24_14h13.53.321,NESC3137_N400_exp,2023.2.3,59.993364734189534,2025-01-24 14h15.07.256747 -0400,
,,,,,,,,,42,0,42,0,,,,,,,,,,,,,198.30642850000004,,,,,,,,,,,,,,,198.29239769999913,198.30642850000004,198.81791259999954,198.79065319999972,198.79065999999875,198.8235769399991,199.30743579999944,200.8089478999991,200.7926924000003,200.79270290000022,201.893857699999,201.893857699999,202.26184759999887,gloves,resources/stimuli/gloves.wav,left,left,1,356.74870000002556,left,1,0.35674870000002556,None,,,,,,,,,,,,,,,,,,,,,,,,,,,,,,,,,,,,,,,,,,,,,,,005,001,2025-01-24_14h13.53.321,NESC3137_N400_exp,2023.2.3,59.993364734189534,2025-01-24 14h15.07.256747 -0400,
,,,,,,,,,43,0,43,0,,,,,,,,,,,,,202.27697289999924,,,,,,,,,,,,,,,202.26273439999932,202.27697289999924,202.77782619999925,202.76174489999903,202.76175169999988,202.77799127000034,203.26152509999883,204.7633695000004,204.74668159999965,204.7466958999994,205.86470149999877,205.86470149999877,206.2155383999998,umbrella,resources/stimuli/umbrella.wav,left,left,1,345.5180000000837,left,1,0.3455180000000837,None,,,,,,,,,,,,,,,,,,,,,,,,,,,,,,,,,,,,,,,,,,,,,,,005,001,2025-01-24_14h13.53.321,NESC3137_N400_exp,2023.2.3,59.993364734189534,2025-01-24 14h15.07.256747 -0400,
,,,,,,,,,44,0,44,0,0,0,0,0,,,,,,,,,210.30239509999956,,,,,,,,,,,,,,,206.21642509999947,206.2315338999997,206.73184140000012,206.71514639999987,206.71515980000004,206.73137706999987,207.2152640000004,208.71691699999974,208.70068429999992,208.70069729999886,209.8185451999998,209.8185451999998,210.28685799999948,turtle,resources/stimuli/turtle_foil.wav,right,right,1,463.94470000086585,right,1,0.46394470000086585,None,210.28761719999966,210.30239509999956,240.29968349999945,240.29968349999945,240.31577709999874,248.52449679999881,space,8.21501089999947,None,,,,,,,,,,,,,,,,,,,,,,,,,,,,,,,,,,,,,,005,001,2025-01-24_14h13.53.321,NESC3137_N400_exp,2023.2.3,59.993364734189534,2025-01-24 14h15.07.256747 -0400,
,,,,,,,,,44,0,44,0,,,,,,,,,,,,,,,,,,,,,,,,,,,,,,,,,,,,,,,,,,,,,,,,,,,,,,,,,,,,,,,,,,,,,,,,,,,,,,,,,,,,,,,,,,,,,,,,,005,001,2025-01-24_14h13.53.321,NESC3137_N400_exp,2023.2.3,59.993364734189534,2025-01-24 14h15.07.256747 -0400,
,,,,,,,,,45,0,45,0,,,,,,,,,,,,,248.53988430000027,,,,,,,,,,,,,,,248.52499589999934,248.53988430000027,249.04043929999898,249.02427779999925,249.0242849999995,249.04057477000023,249.52432509999926,251.0259475999992,251.0098168000004,251.00983459999952,252.1275998000001,252.1275998000001,253.1295983,cake,resources/stimuli/cake_foil.wav,right,right,1,994.6154999997816,right,1,0.9946154999997816,None,,,,,,,,,,,,,,,,,,,,,,,,,,,,,,,,,,,,,,,,,,,,,,,005,001,2025-01-24_14h13.53.321,NESC3137_N400_exp,2023.2.3,59.993364734189534,2025-01-24 14h15.07.256747 -0400,
,,,,,,,,,46,0,46,0,,,,,,,,,,,,,253.14470429999892,,,,,,,,,,,,,,,253.13065889999962,253.14470429999892,253.64501500000006,253.62875319999876,253.6287658000001,253.64492697000023,254.14567799999895,255.64685989999998,255.63129239999944,255.63130629999978,256.7321523999999,256.7321523999999,257.2832944999991,windmill,resources/stimuli/windmill.wav,left,left,1,542.8198000008706,left,1,0.5428198000008706,None,,,,,,,,,,,,,,,,,,,,,,,,,,,,,,,,,,,,,,,,,,,,,,,005,001,2025-01-24_14h13.53.321,NESC3137_N400_exp,2023.2.3,59.993364734189534,2025-01-24 14h15.07.256747 -0400,
,,,,,,,,,47,0,47,0,,,,,,,,,,,,,257.2985841999998,,,,,,,,,,,,,,,257.2842297999996,257.2985841999998,257.79890739999973,257.78297810000004,257.7829853000003,257.79919116999883,258.28311380000014,259.78454899999997,259.7684009000004,259.76841539999987,260.88628869999957,260.88628869999957,261.57101539999894,recordplayer,resources/stimuli/recordplayer.wav,left,left,1,668.9313000006223,left,1,0.6689313000006223,None,,,,,,,,,,,,,,,,,,,,,,,,,,,,,,,,,,,,,,,,,,,,,,,005,001,2025-01-24_14h13.53.321,NESC3137_N400_exp,2023.2.3,59.993364734189534,2025-01-24 14h15.07.256747 -0400,
,,,,,,,,,48,0,48,0,,,,,,,,,,,,,261.58619499999986,,,,,,,,,,,,,,,261.5719876999992,261.58619499999986,262.0868692999993,262.07054699999935,262.0705571999988,262.0867995699988,262.5705753000002,264.0719412999988,264.0559487999999,264.05596460000015,265.1738114999989,265.1738114999989,265.9763619999994,sled,resources/stimuli/sled.wav,left,left,1,796.6271000004781,left,1,0.7966271000004781,None,,,,,,,,,,,,,,,,,,,,,,,,,,,,,,,,,,,,,,,,,,,,,,,005,001,2025-01-24_14h13.53.321,NESC3137_N400_exp,2023.2.3,59.993364734189534,2025-01-24 14h15.07.256747 -0400,
,,,,,,,,,49,0,49,0,,,,,,,,,,,,,265.9906506999996,,,,,,,,,,,,,,,265.9773428999997,265.9906506999996,266.49188680000043,266.47488949999934,266.4748982000001,266.49115026999937,266.99182349999865,268.49322849999953,268.4771155999988,268.47712449999926,269.5782449999988,269.5782449999988,269.8631413000003,snowman,resources/stimuli/snowman.wav,left,left,1,280.1221000008809,left,1,0.2801221000008809,None,,,,,,,,,,,,,,,,,,,,,,,,,,,,,,,,,,,,,,,,,,,,,,,005,001,2025-01-24_14h13.53.321,NESC3137_N400_exp,2023.2.3,59.993364734189534,2025-01-24 14h15.07.256747 -0400,
,,,,,,,,,50,0,50,0,,,,,,,,,,,,,269.87808980000045,,,,,,,,,,,,,,,269.86404519999996,269.87808980000045,270.3783786999993,270.36214279999876,270.36215079999965,270.37840026999913,270.8622123999994,272.36367789999895,272.34756000000016,272.3475686999991,273.46577239999897,273.46577239999897,273.8166736000003,pants,resources/stimuli/pants.wav,left,left,1,345.0477000005776,left,1,0.3450477000005776,None,,,,,,,,,,,,,,,,,,,,,,,,,,,,,,,,,,,,,,,,,,,,,,,005,001,2025-01-24_14h13.53.321,NESC3137_N400_exp,2023.2.3,59.993364734189534,2025-01-24 14h15.07.256747 -0400,
,,,,,,,,,51,0,51,0,,,,,,,,,,,,,273.8322341999992,,,,,,,,,,,,,,,273.8175878999991,273.8322341999992,274.33223199999884,274.31615169999895,274.3161607000002,274.33241496999983,274.81624029999875,276.3177806999993,276.3021783000004,276.3021912000004,277.4195394999988,277.4195394999988,277.7537075,mushroom,resources/stimuli/mushroom_foil.wav,right,right,1,327.3678999994445,right,1,0.3273678999994445,None,,,,,,,,,,,,,,,,,,,,,,,,,,,,,,,,,,,,,,,,,,,,,,,005,001,2025-01-24_14h13.53.321,NESC3137_N400_exp,2023.2.3,59.993364734189534,2025-01-24 14h15.07.256747 -0400,
,,,,,,,,,52,0,52,0,,,,,,,,,,,,,277.76927499999874,,,,,,,,,,,,,,,277.75458309999885,277.76927499999874,278.2697470000003,278.2535444999994,278.2535527,278.2696012699995,278.7536307999999,280.254877899999,280.2393529000001,280.2393678999997,281.35679829999935,281.35679829999935,281.70774659999915,pencil,resources/stimuli/pencil_foil.wav,right,right,1,342.01500000017404,right,1,0.34201500000017404,None,,,,,,,,,,,,,,,,,,,,,,,,,,,,,,,,,,,,,,,,,,,,,,,005,001,2025-01-24_14h13.53.321,NESC3137_N400_exp,2023.2.3,59.993364734189534,2025-01-24 14h15.07.256747 -0400,
,,,,,,,,,53,0,53,0,,,,,,,,,,,,,281.72319889999926,,,,,,,,,,,,,,,281.70863590000044,281.72319889999926,282.22360279999884,282.2073092999999,282.20732019999923,282.2235324699992,282.7075726999992,284.208719799999,284.19266269999935,284.19267260000015,285.31070960000034,285.31070960000034,285.6454174999999,airplane,resources/stimuli/airplane_foil.wav,right,right,1,324.20210000054794,right,1,0.32420210000054794,None,,,,,,,,,,,,,,,,,,,,,,,,,,,,,,,,,,,,,,,,,,,,,,,005,001,2025-01-24_14h13.53.321,NESC3137_N400_exp,2023.2.3,59.993364734189534,2025-01-24 14h15.07.256747 -0400,
,,,,,,,,,54,0,54,0,,,,,,,,,,,,,285.6605005000001,,,,,,,,,,,,,,,285.6464047999998,285.6605005000001,286.1608818000004,286.14469329999883,286.144702399999,286.1609787699996,286.66156779999983,288.16299309999886,288.1466402999995,288.14664989999983,289.24794440000005,289.24794440000005,289.5826804999997,cow,resources/stimuli/cow_foil.wav,right,right,1,322.3859000008815,right,1,0.3223859000008815,None,,,,,,,,,,,,,,,,,,,,,,,,,,,,,,,,,,,,,,,,,,,,,,,005,001,2025-01-24_14h13.53.321,NESC3137_N400_exp,2023.2.3,59.993364734189534,2025-01-24 14h15.07.256747 -0400,
,,,,,,,,,55,0,55,0,,,,,,,,,,,,,289.5978323999989,,,,,,,,,,,,,,,289.58361559999867,289.5978323999989,290.09823099999994,290.08191760000045,290.08193029999893,290.09807736999903,290.59864819999893,292.10001179999927,292.0840673999992,292.08407819999957,293.1857941999988,293.1857941999988,293.53615340000033,doorknob,resources/stimuli/doorknob.wav,left,left,1,336.40440000090166,left,1,0.33640440000090166,None,,,,,,,,,,,,,,,,,,,,,,,,,,,,,,,,,,,,,,,,,,,,,,,005,001,2025-01-24_14h13.53.321,NESC3137_N400_exp,2023.2.3,59.993364734189534,2025-01-24 14h15.07.256747 -0400,
,,,,,,,,,56,0,56,0,,,,,,,,,,,,,293.55151659999865,,,,,,,,,,,,,,,293.53715379999994,293.55151659999865,294.0522457999996,294.03588469999886,294.0358920999988,294.0520873700003,294.5358130000004,296.03747459999977,296.02134579999984,296.02135629999975,297.13988210000025,297.13988210000025,297.7906143,elephant,resources/stimuli/elephant_foil.wav,right,right,1,638.3561999991798,right,1,0.6383561999991798,None,,,,,,,,,,,,,,,,,,,,,,,,,,,,,,,,,,,,,,,,,,,,,,,005,001,2025-01-24_14h13.53.321,NESC3137_N400_exp,2023.2.3,59.993364734189534,2025-01-24 14h15.07.256747 -0400,
,,,,,,,,,57,0,57,0,,,,,,,,,,,,,297.8058033999987,,,,,,,,,,,,,,,297.79168299999947,297.8058033999987,298.30646720000004,298.2901263999993,298.2901361000004,298.3064179699992,298.80697580000015,300.3081846999994,300.2922662000001,300.2922765000003,301.3939792000001,301.3939792000001,301.91134149999925,thimble,resources/stimuli/thimble.wav,left,left,1,512.3287999995227,left,1,0.5123287999995227,None,,,,,,,,,,,,,,,,,,,,,,,,,,,,,,,,,,,,,,,,,,,,,,,005,001,2025-01-24_14h13.53.321,NESC3137_N400_exp,2023.2.3,59.993364734189534,2025-01-24 14h15.07.256747 -0400,
,,,,,,,,,58,0,58,0,,,,,,,,,,,,,301.92642759999944,,,,,,,,,,,,,,,301.9124217999997,301.92642759999944,302.4270252999995,302.41071459999876,302.4107239999994,302.42704926999943,302.91100069999993,304.41237309999997,304.3966641999996,304.39667670000017,305.5145210999999,305.5145210999999,305.88238459999957,knife,resources/stimuli/knife_foil.wav,right,right,1,352.0546999989165,right,1,0.3520546999989165,None,,,,,,,,,,,,,,,,,,,,,,,,,,,,,,,,,,,,,,,,,,,,,,,005,001,2025-01-24_14h13.53.321,NESC3137_N400_exp,2023.2.3,59.993364734189534,2025-01-24 14h15.07.256747 -0400,
,,,,,,,,,59,0,59,0,,,,,,,,,,,,,305.89725989999897,,,,,,,,,,,,,,,305.8832961999997,305.89725989999897,306.3979662999991,306.38207409999995,306.3820825999992,306.3983382700004,306.8989380999992,308.39977419999923,308.38365259999955,308.38366849999875,309.4849493999991,309.4849493999991,309.9531095000002,ruler,resources/stimuli/ruler.wav,left,left,1,462.1800000004441,left,1,0.4621800000004441,None,,,,,,,,,,,,,,,,,,,,,,,,,,,,,,,,,,,,,,,,,,,,,,,005,001,2025-01-24_14h13.53.321,NESC3137_N400_exp,2023.2.3,59.993364734189534,2025-01-24 14h15.07.256747 -0400,
,,,,,,,,,60,0,60,0,,,,,,,,,,,,,309.9680377000004,,,,,,,,,,,,,,,309.95414580000033,309.9680377000004,310.4684355999998,310.4522189999989,310.45222699999977,310.46843817000047,310.96904729999915,312.47038789999897,312.4543249999988,312.4543328,313.55570459999944,313.55570459999944,314.0067051999995,snake,resources/stimuli/snake.wav,left,left,1,439.345200000389,left,1,0.439345200000389,None,,,,,,,,,,,,,,,,,,,,,,,,,,,,,,,,,,,,,,,,,,,,,,,005,001,2025-01-24_14h13.53.321,NESC3137_N400_exp,2023.2.3,59.993364734189534,2025-01-24 14h15.07.256747 -0400,
,,,,,,,,,61,0,61,0,,,,,,,,,,,,,314.02273839999907,,,,,,,,,,,,,,,314.007638699999,314.02273839999907,314.5224896999989,314.50621879999926,314.5062268999991,314.5225221699999,315.0064805999991,316.5080621999987,316.49229529999866,316.4923034000003,317.6097291999995,317.6097291999995,318.0611434000002,spider,resources/stimuli/spider.wav,left,left,1,448.6622999993415,left,1,0.4486622999993415,None,,,,,,,,,,,,,,,,,,,,,,,,,,,,,,,,,,,,,,,,,,,,,,,005,001,2025-01-24_14h13.53.321,NESC3137_N400_exp,2023.2.3,59.993364734189534,2025-01-24 14h15.07.256747 -0400,
,,,,,,,,,62,0,62,0,,,,,,,,,,,,,318.07587090000015,,,,,,,,,,,,,,,318.06202630000007,318.07587090000015,318.5767051999992,318.5604062000002,318.5604149999999,318.57668456999966,319.0770629999988,320.57863799999905,320.5625878999999,320.5626025999991,321.66362899999876,321.66362899999876,322.44827409999925,lamp,resources/stimuli/lamp_foil.wav,right,right,1,771.3008000009722,right,1,0.7713008000009722,None,,,,,,,,,,,,,,,,,,,,,,,,,,,,,,,,,,,,,,,,,,,,,,,005,001,2025-01-24_14h13.53.321,NESC3137_N400_exp,2023.2.3,59.993364734189534,2025-01-24 14h15.07.256747 -0400,
,,,,,,,,,63,0,63,0,,,,,,,,,,,,,322.46377310000025,,,,,,,,,,,,,,,322.4492816000002,322.46377310000025,322.96430299999884,322.9485509999995,322.9485585000002,322.96485516999894,323.44819129999996,324.94981819999884,324.9336610999999,324.93367169999874,326.05177189999995,326.05177189999995,326.50226979999934,hand,resources/stimuli/hand.wav,left,left,1,446.4865000009013,left,1,0.4464865000009013,None,,,,,,,,,,,,,,,,,,,,,,,,,,,,,,,,,,,,,,,,,,,,,,,005,001,2025-01-24_14h13.53.321,NESC3137_N400_exp,2023.2.3,59.993364734189534,2025-01-24 14h15.07.256747 -0400,
,,,,,,,,,64,0,64,0,,,,,,,,,,,,,326.51792039999964,,,,,,,,,,,,,,,326.5031233999998,326.51792039999964,327.0183352999993,327.0021577999996,327.0021648000002,327.018416569999,327.50271169999905,329.0037119999997,328.9873656,328.98738109999977,330.1056461999997,330.1056461999997,330.53978429999916,hanger,resources/stimuli/hanger.wav,left,left,1,432.5838000004296,left,1,0.4325838000004296,None,,,,,,,,,,,,,,,,,,,,,,,,,,,,,,,,,,,,,,,,,,,,,,,005,001,2025-01-24_14h13.53.321,NESC3137_N400_exp,2023.2.3,59.993364734189534,2025-01-24 14h15.07.256747 -0400,
,,,,,,,,,65,0,65,0,,,,,,,,,,,,,330.55517449999934,,,,,,,,,,,,,,,330.5406471999995,330.55517449999934,331.05569579999974,331.0401153999992,331.04012390000025,331.0562695699988,331.53945889999886,333.04100540000036,333.0248566999999,333.02486789999966,334.1429116999989,334.1429116999989,334.5937825000001,bed,resources/stimuli/bed_foil.wav,right,right,1,444.0503000005265,right,1,0.4440503000005265,None,,,,,,,,,,,,,,,,,,,,,,,,,,,,,,,,,,,,,,,,,,,,,,,005,001,2025-01-24_14h13.53.321,NESC3137_N400_exp,2023.2.3,59.993364734189534,2025-01-24 14h15.07.256747 -0400,
,,,,,,,,,66,0,66,0,,,,,,,,,,,,,334.6091825000003,,,,,,,,,,,,,,,334.5946891000003,334.6091825000003,335.1097854999989,335.0935840000002,335.0935993999992,335.10971267000025,335.5936192999998,337.09513139999945,337.07893329999933,337.07894250000027,338.1973010999991,338.1973010999991,339.39893999999913,lettuce,resources/stimuli/lettuce_foil.wav,right,right,1,1196.925199999896,right,1,1.196925199999896,None,,,,,,,,,,,,,,,,,,,,,,,,,,,,,,,,,,,,,,,,,,,,,,,005,001,2025-01-24_14h13.53.321,NESC3137_N400_exp,2023.2.3,59.993364734189534,2025-01-24 14h15.07.256747 -0400,
,,,,,,,,,67,0,67,0,,,,,,,,,,,,,339.41385739999896,,,,,,,,,,,,,,,339.3998646,339.41385739999896,339.91474749999907,339.8982090999998,339.89821669999947,339.9145006699997,340.41517179999937,341.9165572999991,341.9003980999987,341.90040959999897,343.0016235999992,343.0016235999992,343.3193981000004,potato,resources/stimuli/potato_foil.wav,right,right,1,304.96210000092105,right,1,0.30496210000092105,None,,,,,,,,,,,,,,,,,,,,,,,,,,,,,,,,,,,,,,,,,,,,,,,005,001,2025-01-24_14h13.53.321,NESC3137_N400_exp,2023.2.3,59.993364734189534,2025-01-24 14h15.07.256747 -0400,
,,,,,,,,,68,0,68,0,,,,,,,,,,,,,343.3346072000004,,,,,,,,,,,,,,,343.32028139999966,343.3346072000004,343.835181299999,343.8194513999988,343.8194636999997,343.8357038699993,344.31905389999883,345.8212671000001,345.8040791000003,345.8040872999991,346.9228554000001,346.9228554000001,347.33990409999933,deer,resources/stimuli/deer_foil.wav,right,right,1,407.380300001023,right,1,0.407380300001023,None,,,,,,,,,,,,,,,,,,,,,,,,,,,,,,,,,,,,,,,,,,,,,,,005,001,2025-01-24_14h13.53.321,NESC3137_N400_exp,2023.2.3,59.993364734189534,2025-01-24 14h15.07.256747 -0400,
,,,,,,,,,69,0,69,0,,,,,,,,,,,,,347.35533249999935,,,,,,,,,,,,,,,347.3409809999994,347.35533249999935,347.8558221000003,347.8395858999993,347.8395959999998,347.8557825699987,348.33962599999904,349.8411809999998,349.82544849999977,349.8254563999999,350.94290029999866,350.94290029999866,351.2274242000003,desk,resources/stimuli/desk.wav,left,left,1,276.08429999963846,left,1,0.27608429999963846,None,,,,,,,,,,,,,,,,,,,,,,,,,,,,,,,,,,,,,,,,,,,,,,,005,001,2025-01-24_14h13.53.321,NESC3137_N400_exp,2023.2.3,59.993364734189534,2025-01-24 14h15.07.256747 -0400,
,,,,,,,,,70,0,70,0,,,,,,,,,,,,,351.24259619999975,,,,,,,,,,,,,,,351.22847889999866,351.24259619999975,351.7431657999987,351.7268598999999,351.7268714999991,351.7431540699996,352.2435248999991,353.7450537000004,353.72873029999937,353.7287448999996,354.83036189999984,354.83036189999984,355.0648296999989,gorilla,resources/stimuli/gorilla.wav,left,left,1,228.34340000008524,left,1,0.22834340000008524,None,,,,,,,,,,,,,,,,,,,,,,,,,,,,,,,,,,,,,,,,,,,,,,,005,001,2025-01-24_14h13.53.321,NESC3137_N400_exp,2023.2.3,59.993364734189534,2025-01-24 14h15.07.256747 -0400,
,,,,,,,,,71,0,71,0,,,,,,,,,,,,,355.07961629999954,,,,,,,,,,,,,,,355.0657281999993,355.07961629999954,355.5809670999988,355.5638925000003,355.5639001999989,355.5802027699989,356.0807425999992,357.58215740000014,357.56589729999905,357.56590909999977,358.66770989999895,358.66770989999895,358.90140379999866,bread,resources/stimuli/bread_foil.wav,right,right,1,230.47159999987343,right,1,0.23047159999987343,None,,,,,,,,,,,,,,,,,,,,,,,,,,,,,,,,,,,,,,,,,,,,,,,005,001,2025-01-24_14h13.53.321,NESC3137_N400_exp,2023.2.3,59.993364734189534,2025-01-24 14h15.07.256747 -0400,
,,,,,,,,,72,0,72,0,,,,,,,,,,,,,358.91745139999875,,,,,,,,,,,,,,,358.9023357999995,358.91745139999875,359.41732740000043,359.4012083999987,359.4012213999995,359.4174026699999,359.90155649999906,361.40259870000045,361.38673319999907,361.38674360000005,362.5044687999998,362.5044687999998,362.7722503999994,lightswitch,resources/stimuli/lightswitch_foil.wav,right,right,1,258.33009999951173,right,1,0.25833009999951173,None,,,,,,,,,,,,,,,,,,,,,,,,,,,,,,,,,,,,,,,,,,,,,,,005,001,2025-01-24_14h13.53.321,NESC3137_N400_exp,2023.2.3,59.993364734189534,2025-01-24 14h15.07.256747 -0400,
,,,,,,,,,73,0,73,0,,,,,,,,,,,,,362.7874095999996,,,,,,,,,,,,,,,362.77323239999896,362.7874095999996,363.287902099999,363.2716208999991,363.27162959999987,363.28784656999926,363.77175239999997,365.27316489999976,365.2571231999991,365.25713240000005,366.37496999999894,366.37496999999894,366.69341449999956,toothbrush,resources/stimuli/toothbrush_foil.wav,right,right,1,315.7900000005611,right,1,0.3157900000005611,None,,,,,,,,,,,,,,,,,,,,,,,,,,,,,,,,,,,,,,,,,,,,,,,005,001,2025-01-24_14h13.53.321,NESC3137_N400_exp,2023.2.3,59.993364734189534,2025-01-24 14h15.07.256747 -0400,
,,,,,,,,,74,0,74,0,,,,,,,,,,,,,366.70802840000033,,,,,,,,,,,,,,,366.69501299999865,366.70802840000033,367.2092885000002,367.1921681999993,367.1921771999987,367.20836226999893,367.7089393999995,369.2105386000003,369.1945771999999,369.1945870999989,370.29560859999947,370.29560859999947,370.6465489000002,carrot,resources/stimuli/carrot.wav,left,left,1,339.6315999998478,left,1,0.3396315999998478,None,,,,,,,,,,,,,,,,,,,,,,,,,,,,,,,,,,,,,,,,,,,,,,,005,001,2025-01-24_14h13.53.321,NESC3137_N400_exp,2023.2.3,59.993364734189534,2025-01-24 14h15.07.256747 -0400,
,,,,,,,,,75,0,75,0,,,,,,,,,,,,,370.66197309999916,,,,,,,,,,,,,,,370.6475167999997,370.66197309999916,371.1624596999991,371.14609759999985,371.14610699999866,371.1622998700001,371.6464651999995,373.147744599999,373.13151949999883,373.13152959999934,374.25026179999986,374.25026179999986,374.7173669999993,babycarriage,resources/stimuli/babycarriage.wav,left,left,1,456.69920000000275,left,1,0.45669920000000275,None,,,,,,,,,,,,,,,,,,,,,,,,,,,,,,,,,,,,,,,,,,,,,,,005,001,2025-01-24_14h13.53.321,NESC3137_N400_exp,2023.2.3,59.993364734189534,2025-01-24 14h15.07.256747 -0400,
,,,,,,,,,76,0,76,0,,,,,,,,,,,,,374.7327683000003,,,,,,,,,,,,,,,374.7182448000003,374.7327683000003,375.233159899999,375.21711959999993,375.2171269999999,375.23347307000006,375.7168985999997,377.2183428999997,377.20253629999934,377.20254980000027,378.32021729999906,378.32021729999906,378.60423099999934,lion,resources/stimuli/lion_foil.wav,right,right,1,282.3415999991994,right,1,0.2823415999991994,None,,,,,,,,,,,,,,,,,,,,,,,,,,,,,,,,,,,,,,,,,,,,,,,005,001,2025-01-24_14h13.53.321,NESC3137_N400_exp,2023.2.3,59.993364734189534,2025-01-24 14h15.07.256747 -0400,
,,,,,,,,,77,0,77,0,,,,,,,,,,,,,378.62001469999996,,,,,,,,,,,,,,,378.6050729999988,378.62001469999996,379.1201626000002,379.1041992999999,379.104206,379.1202998699988,379.6046564999997,381.1061172999998,381.08966820000023,381.08967929999926,382.2074090999995,382.2074090999995,382.47544129999915,trafficlight,resources/stimuli/trafficlight.wav,left,left,1,267.25080000142043,left,1,0.26725080000142043,None,,,,,,,,,,,,,,,,,,,,,,,,,,,,,,,,,,,,,,,,,,,,,,,005,001,2025-01-24_14h13.53.321,NESC3137_N400_exp,2023.2.3,59.993364734189534,2025-01-24 14h15.07.256747 -0400,
,,,,,,,,,78,0,78,0,,,,,,,,,,,,,382.49042559999907,,,,,,,,,,,,,,,382.4763874,382.49042559999907,382.99093319999884,382.9745936999989,382.97460130000036,382.99089656999934,383.4748607999991,384.97625960000005,384.960069499999,384.9600778999993,386.0780653999991,386.0780653999991,386.3788659999991,whistle,resources/stimuli/whistle_foil.wav,right,right,1,292.4333999999362,right,1,0.2924333999999362,None,,,,,,,,,,,,,,,,,,,,,,,,,,,,,,,,,,,,,,,,,,,,,,,005,001,2025-01-24_14h13.53.321,NESC3137_N400_exp,2023.2.3,59.993364734189534,2025-01-24 14h15.07.256747 -0400,
