Word,setup_loop.thisRepN,setup_loop.thisTrialN,setup_loop.thisN,setup_loop.thisIndex,shuffle_loop.thisRepN,shuffle_loop.thisTrialN,shuffle_loop.thisN,shuffle_loop.thisIndex,trials.thisRepN,trials.thisTrialN,trials.thisN,trials.thisIndex,trialsBreak.thisRepN,trialsBreak.thisTrialN,trialsBreak.thisN,trialsBreak.thisIndex,trials_2.thisRepN,trials_2.thisTrialN,trials_2.thisN,trials_2.thisIndex,trialsBreak2.thisRepN,trialsBreak2.thisTrialN,trialsBreak2.thisN,trialsBreak2.thisIndex,thisRow.t,notes,LSL_Stream.started,LSL_Stream.stopped,setup.started,setup.stopped,shuffle_stimuli.started,shuffle_stimuli.stopped,Instructions1.started,imageInstruct1.started,key_resp_Instruct1.started,Instructions1.stopped,key_resp_Instruct1.keys,key_resp_Instruct1.rt,key_resp_Instruct1.duration,fixation.started,cross.started,fixation.stopped,stimuli_prez_1.started,imagePrez1.started,audioPrez1.started,imagePrez1.stopped,stimuli_prez_1.stopped,response.started,image_resp_p1.started,p1_resp_stim.started,response.stopped,Image,Audio,response_p1,corchoice_p1,Trial_Score_p1,Trial_RT_p1,p1_resp_stim.keys,p1_resp_stim.corr,p1_resp_stim.rt,p1_resp_stim.duration,cross.stopped,checkpoint.started,imageBreak.started,imageCont.started,key_break.started,imageBreak.stopped,checkpoint.stopped,key_break.keys,key_break.rt,key_break.duration,Instructions2.started,imageInstruct1_2.started,key_resp_Instruct1_2.started,Instructions2.stopped,key_resp_Instruct1_2.keys,key_resp_Instruct1_2.rt,key_resp_Instruct1_2.duration,fixation_2.started,cross_2.started,fixation_2.stopped,stimuli_prez_2.started,audioPrez2.started,imagePrez2.started,imagePrez2.stopped,stimuli_prez_2.stopped,response_2.started,image_resp_p2.started,p2_resp_stim.started,response_2.stopped,Image2,Audio2,response_p2,corchoice_p2,Trial_Score_p2,Trial_RT_p2,p2_resp_stim.keys,p2_resp_stim.corr,p2_resp_stim.rt,p2_resp_stim.duration,cross_2.stopped,end.started,endscreen.started,key_resp_end.started,participant,session,date,expName,psychopyVersion,frameRate,expStart,
thimble,0,0,0,158,,,,,,,,,,,,,,,,,,,,,0.22555290000002515,,0.11826569999999492,0.1187221000000136,0.15495140000001584,0.1553367999999864,,,,,,,,,,,,,,,,,,,,,,,,,,,,,,,,,,,,,,,,,,,,,,,,,,,,,,,,,,,,,,,,,,,,,,,,,,,sub-001,001,2025-01-24_14h12.08.293,NESC3137_N400_exp,2023.2.3,146.1659217077025,2025-01-24 14h12.20.156201 -0400,
clown,0,1,1,36,,,,,,,,,,,,,,,,,,,,,0.22555290000002515,,,,0.15548069999999825,0.15563969999999472,,,,,,,,,,,,,,,,,,,,,,,,,,,,,,,,,,,,,,,,,,,,,,,,,,,,,,,,,,,,,,,,,,,,,,,,,,,sub-001,001,2025-01-24_14h12.08.293,NESC3137_N400_exp,2023.2.3,146.1659217077025,2025-01-24 14h12.20.156201 -0400,
purse,0,2,2,125,,,,,,,,,,,,,,,,,,,,,0.22555290000002515,,,,0.15575799999999163,0.15594070000003057,,,,,,,,,,,,,,,,,,,,,,,,,,,,,,,,,,,,,,,,,,,,,,,,,,,,,,,,,,,,,,,,,,,,,,,,,,,sub-001,001,2025-01-24_14h12.08.293,NESC3137_N400_exp,2023.2.3,146.1659217077025,2025-01-24 14h12.20.156201 -0400,
recordplayer,0,3,3,127,,,,,,,,,,,,,,,,,,,,,0.22555290000002515,,,,0.15611020000000053,0.1562787999999955,,,,,,,,,,,,,,,,,,,,,,,,,,,,,,,,,,,,,,,,,,,,,,,,,,,,,,,,,,,,,,,,,,,,,,,,,,,sub-001,001,2025-01-24_14h12.08.293,NESC3137_N400_exp,2023.2.3,146.1659217077025,2025-01-24 14h12.20.156201 -0400,
book,0,4,4,17,,,,,,,,,,,,,,,,,,,,,0.22555290000002515,,,,0.15642459999997982,0.15658330000002252,,,,,,,,,,,,,,,,,,,,,,,,,,,,,,,,,,,,,,,,,,,,,,,,,,,,,,,,,,,,,,,,,,,,,,,,,,,sub-001,001,2025-01-24_14h12.08.293,NESC3137_N400_exp,2023.2.3,146.1659217077025,2025-01-24 14h12.20.156201 -0400,
peanut,0,5,5,113,,,,,,,,,,,,,,,,,,,,,0.22555290000002515,,,,0.15671909999997524,0.15685910000001968,,,,,,,,,,,,,,,,,,,,,,,,,,,,,,,,,,,,,,,,,,,,,,,,,,,,,,,,,,,,,,,,,,,,,,,,,,,sub-001,001,2025-01-24_14h12.08.293,NESC3137_N400_exp,2023.2.3,146.1659217077025,2025-01-24 14h12.20.156201 -0400,
cat,0,6,6,28,,,,,,,,,,,,,,,,,,,,,0.22555290000002515,,,,0.1569749000000229,0.15710450000000264,,,,,,,,,,,,,,,,,,,,,,,,,,,,,,,,,,,,,,,,,,,,,,,,,,,,,,,,,,,,,,,,,,,,,,,,,,,sub-001,001,2025-01-24_14h12.08.293,NESC3137_N400_exp,2023.2.3,146.1659217077025,2025-01-24 14h12.20.156201 -0400,
salt,0,7,7,133,,,,,,,,,,,,,,,,,,,,,0.22555290000002515,,,,0.15721610000002784,0.1573516000000268,,,,,,,,,,,,,,,,,,,,,,,,,,,,,,,,,,,,,,,,,,,,,,,,,,,,,,,,,,,,,,,,,,,,,,,,,,,sub-001,001,2025-01-24_14h12.08.293,NESC3137_N400_exp,2023.2.3,146.1659217077025,2025-01-24 14h12.20.156201 -0400,
sun,0,8,8,152,,,,,,,,,,,,,,,,,,,,,0.22555290000002515,,,,0.15748650000000453,0.15763400000003003,,,,,,,,,,,,,,,,,,,,,,,,,,,,,,,,,,,,,,,,,,,,,,,,,,,,,,,,,,,,,,,,,,,,,,,,,,,sub-001,001,2025-01-24_14h12.08.293,NESC3137_N400_exp,2023.2.3,146.1659217077025,2025-01-24 14h12.20.156201 -0400,
gorilla,0,9,9,65,,,,,,,,,,,,,,,,,,,,,0.22555290000002515,,,,0.15775280000002567,0.15789960000000747,,,,,,,,,,,,,,,,,,,,,,,,,,,,,,,,,,,,,,,,,,,,,,,,,,,,,,,,,,,,,,,,,,,,,,,,,,,sub-001,001,2025-01-24_14h12.08.293,NESC3137_N400_exp,2023.2.3,146.1659217077025,2025-01-24 14h12.20.156201 -0400,
orange,0,10,10,105,,,,,,,,,,,,,,,,,,,,,0.22555290000002515,,,,0.1580081999999834,0.15814530000000104,,,,,,,,,,,,,,,,,,,,,,,,,,,,,,,,,,,,,,,,,,,,,,,,,,,,,,,,,,,,,,,,,,,,,,,,,,,sub-001,001,2025-01-24_14h12.08.293,NESC3137_N400_exp,2023.2.3,146.1659217077025,2025-01-24 14h12.20.156201 -0400,
lock,0,11,11,96,,,,,,,,,,,,,,,,,,,,,0.22555290000002515,,,,0.15833489999999983,0.15850089999997863,,,,,,,,,,,,,,,,,,,,,,,,,,,,,,,,,,,,,,,,,,,,,,,,,,,,,,,,,,,,,,,,,,,,,,,,,,,sub-001,001,2025-01-24_14h12.08.293,NESC3137_N400_exp,2023.2.3,146.1659217077025,2025-01-24 14h12.20.156201 -0400,
bow,0,12,12,19,,,,,,,,,,,,,,,,,,,,,0.22555290000002515,,,,0.15867630000002464,0.1588297000000125,,,,,,,,,,,,,,,,,,,,,,,,,,,,,,,,,,,,,,,,,,,,,,,,,,,,,,,,,,,,,,,,,,,,,,,,,,,sub-001,001,2025-01-24_14h12.08.293,NESC3137_N400_exp,2023.2.3,146.1659217077025,2025-01-24 14h12.20.156201 -0400,
frog,0,13,13,58,,,,,,,,,,,,,,,,,,,,,0.22555290000002515,,,,0.15900520000002416,0.15915610000001834,,,,,,,,,,,,,,,,,,,,,,,,,,,,,,,,,,,,,,,,,,,,,,,,,,,,,,,,,,,,,,,,,,,,,,,,,,,sub-001,001,2025-01-24_14h12.08.293,NESC3137_N400_exp,2023.2.3,146.1659217077025,2025-01-24 14h12.20.156201 -0400,
moon,0,14,14,99,,,,,,,,,,,,,,,,,,,,,0.22555290000002515,,,,0.15928420000000187,0.15946120000000974,,,,,,,,,,,,,,,,,,,,,,,,,,,,,,,,,,,,,,,,,,,,,,,,,,,,,,,,,,,,,,,,,,,,,,,,,,,sub-001,001,2025-01-24_14h12.08.293,NESC3137_N400_exp,2023.2.3,146.1659217077025,2025-01-24 14h12.20.156201 -0400,
anchor,0,15,15,3,,,,,,,,,,,,,,,,,,,,,0.22555290000002515,,,,0.15957329999997683,0.1597194000000286,,,,,,,,,,,,,,,,,,,,,,,,,,,,,,,,,,,,,,,,,,,,,,,,,,,,,,,,,,,,,,,,,,,,,,,,,,,sub-001,001,2025-01-24_14h12.08.293,NESC3137_N400_exp,2023.2.3,146.1659217077025,2025-01-24 14h12.20.156201 -0400,
hand,0,16,16,71,,,,,,,,,,,,,,,,,,,,,0.22555290000002515,,,,0.15982880000001387,0.15996009999997796,,,,,,,,,,,,,,,,,,,,,,,,,,,,,,,,,,,,,,,,,,,,,,,,,,,,,,,,,,,,,,,,,,,,,,,,,,,sub-001,001,2025-01-24_14h12.08.293,NESC3137_N400_exp,2023.2.3,146.1659217077025,2025-01-24 14h12.20.156201 -0400,
necklace,0,17,17,103,,,,,,,,,,,,,,,,,,,,,0.22555290000002515,,,,0.16006759999999076,0.16019529999999804,,,,,,,,,,,,,,,,,,,,,,,,,,,,,,,,,,,,,,,,,,,,,,,,,,,,,,,,,,,,,,,,,,,,,,,,,,,sub-001,001,2025-01-24_14h12.08.293,NESC3137_N400_exp,2023.2.3,146.1659217077025,2025-01-24 14h12.20.156201 -0400,
pig,0,18,18,118,,,,,,,,,,,,,,,,,,,,,0.22555290000002515,,,,0.16030460000001767,0.16043380000002117,,,,,,,,,,,,,,,,,,,,,,,,,,,,,,,,,,,,,,,,,,,,,,,,,,,,,,,,,,,,,,,,,,,,,,,,,,,sub-001,001,2025-01-24_14h12.08.293,NESC3137_N400_exp,2023.2.3,146.1659217077025,2025-01-24 14h12.20.156201 -0400,
chain,0,19,19,29,,,,,,,,,,,,,,,,,,,,,0.22555290000002515,,,,0.16054129999997713,0.16070450000000847,,,,,,,,,,,,,,,,,,,,,,,,,,,,,,,,,,,,,,,,,,,,,,,,,,,,,,,,,,,,,,,,,,,,,,,,,,,sub-001,001,2025-01-24_14h12.08.293,NESC3137_N400_exp,2023.2.3,146.1659217077025,2025-01-24 14h12.20.156201 -0400,
owl,0,20,20,107,,,,,,,,,,,,,,,,,,,,,0.22555290000002515,,,,0.16083270000001448,0.1609786000000213,,,,,,,,,,,,,,,,,,,,,,,,,,,,,,,,,,,,,,,,,,,,,,,,,,,,,,,,,,,,,,,,,,,,,,,,,,,sub-001,001,2025-01-24_14h12.08.293,NESC3137_N400_exp,2023.2.3,146.1659217077025,2025-01-24 14h12.20.156201 -0400,
vest,0,21,21,168,,,,,,,,,,,,,,,,,,,,,0.22555290000002515,,,,0.1610860000000116,0.1612135999999964,,,,,,,,,,,,,,,,,,,,,,,,,,,,,,,,,,,,,,,,,,,,,,,,,,,,,,,,,,,,,,,,,,,,,,,,,,,sub-001,001,2025-01-24_14h12.08.293,NESC3137_N400_exp,2023.2.3,146.1659217077025,2025-01-24 14h12.20.156201 -0400,
spider,0,22,22,146,,,,,,,,,,,,,,,,,,,,,0.22555290000002515,,,,0.1613232999999923,0.1614534000000276,,,,,,,,,,,,,,,,,,,,,,,,,,,,,,,,,,,,,,,,,,,,,,,,,,,,,,,,,,,,,,,,,,,,,,,,,,,sub-001,001,2025-01-24_14h12.08.293,NESC3137_N400_exp,2023.2.3,146.1659217077025,2025-01-24 14h12.20.156201 -0400,
vase,0,23,23,167,,,,,,,,,,,,,,,,,,,,,0.22555290000002515,,,,0.1615626999999904,0.16168870000001334,,,,,,,,,,,,,,,,,,,,,,,,,,,,,,,,,,,,,,,,,,,,,,,,,,,,,,,,,,,,,,,,,,,,,,,,,,,sub-001,001,2025-01-24_14h12.08.293,NESC3137_N400_exp,2023.2.3,146.1659217077025,2025-01-24 14h12.20.156201 -0400,
scissors,0,24,24,135,,,,,,,,,,,,,,,,,,,,,0.22555290000002515,,,,0.16179520000002867,0.16197990000000573,,,,,,,,,,,,,,,,,,,,,,,,,,,,,,,,,,,,,,,,,,,,,,,,,,,,,,,,,,,,,,,,,,,,,,,,,,,sub-001,001,2025-01-24_14h12.08.293,NESC3137_N400_exp,2023.2.3,146.1659217077025,2025-01-24 14h12.20.156201 -0400,
hat,0,25,25,74,,,,,,,,,,,,,,,,,,,,,0.22555290000002515,,,,0.1621499999999969,0.1623422999999775,,,,,,,,,,,,,,,,,,,,,,,,,,,,,,,,,,,,,,,,,,,,,,,,,,,,,,,,,,,,,,,,,,,,,,,,,,,sub-001,001,2025-01-24_14h12.08.293,NESC3137_N400_exp,2023.2.3,146.1659217077025,2025-01-24 14h12.20.156201 -0400,
seal,0,26,26,138,,,,,,,,,,,,,,,,,,,,,0.22555290000002515,,,,0.16250560000003134,0.1626749999999788,,,,,,,,,,,,,,,,,,,,,,,,,,,,,,,,,,,,,,,,,,,,,,,,,,,,,,,,,,,,,,,,,,,,,,,,,,,sub-001,001,2025-01-24_14h12.08.293,NESC3137_N400_exp,2023.2.3,146.1659217077025,2025-01-24 14h12.20.156201 -0400,
shoe,0,27,27,140,,,,,,,,,,,,,,,,,,,,,0.22555290000002515,,,,0.16285549999997784,0.16306830000002037,,,,,,,,,,,,,,,,,,,,,,,,,,,,,,,,,,,,,,,,,,,,,,,,,,,,,,,,,,,,,,,,,,,,,,,,,,,sub-001,001,2025-01-24_14h12.08.293,NESC3137_N400_exp,2023.2.3,146.1659217077025,2025-01-24 14h12.20.156201 -0400,
snake,0,28,28,154,,,,,,,,,,,,,,,,,,,,,0.22555290000002515,,,,0.16321629999998777,0.16338840000003074,,,,,,,,,,,,,,,,,,,,,,,,,,,,,,,,,,,,,,,,,,,,,,,,,,,,,,,,,,,,,,,,,,,,,,,,,,,sub-001,001,2025-01-24_14h12.08.293,NESC3137_N400_exp,2023.2.3,146.1659217077025,2025-01-24 14h12.20.156201 -0400,
fish,0,29,29,54,,,,,,,,,,,,,,,,,,,,,0.22555290000002515,,,,0.16350510000000895,0.1636814999999956,,,,,,,,,,,,,,,,,,,,,,,,,,,,,,,,,,,,,,,,,,,,,,,,,,,,,,,,,,,,,,,,,,,,,,,,,,,sub-001,001,2025-01-24_14h12.08.293,NESC3137_N400_exp,2023.2.3,146.1659217077025,2025-01-24 14h12.20.156201 -0400,
nail,0,30,30,102,,,,,,,,,,,,,,,,,,,,,0.22555290000002515,,,,0.16382409999999936,0.16409859999998844,,,,,,,,,,,,,,,,,,,,,,,,,,,,,,,,,,,,,,,,,,,,,,,,,,,,,,,,,,,,,,,,,,,,,,,,,,,sub-001,001,2025-01-24_14h12.08.293,NESC3137_N400_exp,2023.2.3,146.1659217077025,2025-01-24 14h12.20.156201 -0400,
key,0,31,31,82,,,,,,,,,,,,,,,,,,,,,0.22555290000002515,,,,0.1642800000000193,0.16447529999999233,,,,,,,,,,,,,,,,,,,,,,,,,,,,,,,,,,,,,,,,,,,,,,,,,,,,,,,,,,,,,,,,,,,,,,,,,,,sub-001,001,2025-01-24_14h12.08.293,NESC3137_N400_exp,2023.2.3,146.1659217077025,2025-01-24 14h12.20.156201 -0400,
whistle,0,32,32,174,,,,,,,,,,,,,,,,,,,,,0.22555290000002515,,,,0.164616599999988,0.1648132999999916,,,,,,,,,,,,,,,,,,,,,,,,,,,,,,,,,,,,,,,,,,,,,,,,,,,,,,,,,,,,,,,,,,,,,,,,,,,sub-001,001,2025-01-24_14h12.08.293,NESC3137_N400_exp,2023.2.3,146.1659217077025,2025-01-24 14h12.20.156201 -0400,
tennisracket,0,33,33,157,,,,,,,,,,,,,,,,,,,,,0.22555290000002515,,,,0.16496269999998958,0.1651279999999815,,,,,,,,,,,,,,,,,,,,,,,,,,,,,,,,,,,,,,,,,,,,,,,,,,,,,,,,,,,,,,,,,,,,,,,,,,,sub-001,001,2025-01-24_14h12.08.293,NESC3137_N400_exp,2023.2.3,146.1659217077025,2025-01-24 14h12.20.156201 -0400,
pencil,0,34,34,115,,,,,,,,,,,,,,,,,,,,,0.22555290000002515,,,,0.1652516999999989,0.16540479999997615,,,,,,,,,,,,,,,,,,,,,,,,,,,,,,,,,,,,,,,,,,,,,,,,,,,,,,,,,,,,,,,,,,,,,,,,,,,sub-001,001,2025-01-24_14h12.08.293,NESC3137_N400_exp,2023.2.3,146.1659217077025,2025-01-24 14h12.20.156201 -0400,
doorknob,0,35,35,44,,,,,,,,,,,,,,,,,,,,,0.22555290000002515,,,,0.16552130000002307,0.16567620000000716,,,,,,,,,,,,,,,,,,,,,,,,,,,,,,,,,,,,,,,,,,,,,,,,,,,,,,,,,,,,,,,,,,,,,,,,,,,sub-001,001,2025-01-24_14h12.08.293,NESC3137_N400_exp,2023.2.3,146.1659217077025,2025-01-24 14h12.20.156201 -0400,
paintbrush,0,36,36,108,,,,,,,,,,,,,,,,,,,,,0.22555290000002515,,,,0.16578859999998485,0.16593770000002905,,,,,,,,,,,,,,,,,,,,,,,,,,,,,,,,,,,,,,,,,,,,,,,,,,,,,,,,,,,,,,,,,,,,,,,,,,,sub-001,001,2025-01-24_14h12.08.293,NESC3137_N400_exp,2023.2.3,146.1659217077025,2025-01-24 14h12.20.156201 -0400,
lamp,0,37,37,86,,,,,,,,,,,,,,,,,,,,,0.22555290000002515,,,,0.16604829999999993,0.16618199999999206,,,,,,,,,,,,,,,,,,,,,,,,,,,,,,,,,,,,,,,,,,,,,,,,,,,,,,,,,,,,,,,,,,,,,,,,,,,sub-001,001,2025-01-24_14h12.08.293,NESC3137_N400_exp,2023.2.3,146.1659217077025,2025-01-24 14h12.20.156201 -0400,
piano,0,38,38,117,,,,,,,,,,,,,,,,,,,,,0.22555290000002515,,,,0.16631769999997914,0.16645290000002433,,,,,,,,,,,,,,,,,,,,,,,,,,,,,,,,,,,,,,,,,,,,,,,,,,,,,,,,,,,,,,,,,,,,,,,,,,,sub-001,001,2025-01-24_14h12.08.293,NESC3137_N400_exp,2023.2.3,146.1659217077025,2025-01-24 14h12.20.156201 -0400,
potato,0,39,39,124,,,,,,,,,,,,,,,,,,,,,0.22555290000002515,,,,0.16656119999998964,0.16669000000001688,,,,,,,,,,,,,,,,,,,,,,,,,,,,,,,,,,,,,,,,,,,,,,,,,,,,,,,,,,,,,,,,,,,,,,,,,,,sub-001,001,2025-01-24_14h12.08.293,NESC3137_N400_exp,2023.2.3,146.1659217077025,2025-01-24 14h12.20.156201 -0400,
mitten,0,40,40,97,,,,,,,,,,,,,,,,,,,,,0.22555290000002515,,,,0.1668013999999971,0.1669474000000264,,,,,,,,,,,,,,,,,,,,,,,,,,,,,,,,,,,,,,,,,,,,,,,,,,,,,,,,,,,,,,,,,,,,,,,,,,,sub-001,001,2025-01-24_14h12.08.293,NESC3137_N400_exp,2023.2.3,146.1659217077025,2025-01-24 14h12.20.156201 -0400,
clock,0,41,41,34,,,,,,,,,,,,,,,,,,,,,0.22555290000002515,,,,0.16706169999997655,0.16720340000000533,,,,,,,,,,,,,,,,,,,,,,,,,,,,,,,,,,,,,,,,,,,,,,,,,,,,,,,,,,,,,,,,,,,,,,,,,,,sub-001,001,2025-01-24_14h12.08.293,NESC3137_N400_exp,2023.2.3,146.1659217077025,2025-01-24 14h12.20.156201 -0400,
carrot,0,42,42,27,,,,,,,,,,,,,,,,,,,,,0.22555290000002515,,,,0.16731829999997672,0.16745109999999386,,,,,,,,,,,,,,,,,,,,,,,,,,,,,,,,,,,,,,,,,,,,,,,,,,,,,,,,,,,,,,,,,,,,,,,,,,,sub-001,001,2025-01-24_14h12.08.293,NESC3137_N400_exp,2023.2.3,146.1659217077025,2025-01-24 14h12.20.156201 -0400,
gloves,0,43,43,63,,,,,,,,,,,,,,,,,,,,,0.22555290000002515,,,,0.16756270000001905,0.16769160000001193,,,,,,,,,,,,,,,,,,,,,,,,,,,,,,,,,,,,,,,,,,,,,,,,,,,,,,,,,,,,,,,,,,,,,,,,,,,sub-001,001,2025-01-24_14h12.08.293,NESC3137_N400_exp,2023.2.3,146.1659217077025,2025-01-24 14h12.20.156201 -0400,
boot,0,44,44,18,,,,,,,,,,,,,,,,,,,,,0.22555290000002515,,,,0.16780080000000908,0.16795680000001312,,,,,,,,,,,,,,,,,,,,,,,,,,,,,,,,,,,,,,,,,,,,,,,,,,,,,,,,,,,,,,,,,,,,,,,,,,,sub-001,001,2025-01-24_14h12.08.293,NESC3137_N400_exp,2023.2.3,146.1659217077025,2025-01-24 14h12.20.156201 -0400,
ruler,0,45,45,132,,,,,,,,,,,,,,,,,,,,,0.22555290000002515,,,,0.16806550000001153,0.16825069999998732,,,,,,,,,,,,,,,,,,,,,,,,,,,,,,,,,,,,,,,,,,,,,,,,,,,,,,,,,,,,,,,,,,,,,,,,,,,sub-001,001,2025-01-24_14h12.08.293,NESC3137_N400_exp,2023.2.3,146.1659217077025,2025-01-24 14h12.20.156201 -0400,
balloon,0,46,46,8,,,,,,,,,,,,,,,,,,,,,0.22555290000002515,,,,0.1684227000000078,0.16859199999998964,,,,,,,,,,,,,,,,,,,,,,,,,,,,,,,,,,,,,,,,,,,,,,,,,,,,,,,,,,,,,,,,,,,,,,,,,,,sub-001,001,2025-01-24_14h12.08.293,NESC3137_N400_exp,2023.2.3,146.1659217077025,2025-01-24 14h12.20.156201 -0400,
trafficlight,0,47,47,162,,,,,,,,,,,,,,,,,,,,,0.22555290000002515,,,,0.16875310000000354,0.16894070000000738,,,,,,,,,,,,,,,,,,,,,,,,,,,,,,,,,,,,,,,,,,,,,,,,,,,,,,,,,,,,,,,,,,,,,,,,,,,sub-001,001,2025-01-24_14h12.08.293,NESC3137_N400_exp,2023.2.3,146.1659217077025,2025-01-24 14h12.20.156201 -0400,
snowman,0,48,48,145,,,,,,,,,,,,,,,,,,,,,0.22555290000002515,,,,0.16909020000002783,0.16924579999999878,,,,,,,,,,,,,,,,,,,,,,,,,,,,,,,,,,,,,,,,,,,,,,,,,,,,,,,,,,,,,,,,,,,,,,,,,,,sub-001,001,2025-01-24_14h12.08.293,NESC3137_N400_exp,2023.2.3,146.1659217077025,2025-01-24 14h12.20.156201 -0400,
kite,0,49,49,83,,,,,,,,,,,,,,,,,,,,,0.22555290000002515,,,,0.16938210000000709,0.16954640000000154,,,,,,,,,,,,,,,,,,,,,,,,,,,,,,,,,,,,,,,,,,,,,,,,,,,,,,,,,,,,,,,,,,,,,,,,,,,sub-001,001,2025-01-24_14h12.08.293,NESC3137_N400_exp,2023.2.3,146.1659217077025,2025-01-24 14h12.20.156201 -0400,
stove,0,50,50,149,,,,,,,,,,,,,,,,,,,,,0.22555290000002515,,,,0.16967920000001868,0.16987000000000307,,,,,,,,,,,,,,,,,,,,,,,,,,,,,,,,,,,,,,,,,,,,,,,,,,,,,,,,,,,,,,,,,,,,,,,,,,,sub-001,001,2025-01-24_14h12.08.293,NESC3137_N400_exp,2023.2.3,146.1659217077025,2025-01-24 14h12.20.156201 -0400,
belt,0,51,51,15,,,,,,,,,,,,,,,,,,,,,0.22555290000002515,,,,0.17000080000002527,0.17017029999999522,,,,,,,,,,,,,,,,,,,,,,,,,,,,,,,,,,,,,,,,,,,,,,,,,,,,,,,,,,,,,,,,,,,,,,,,,,,sub-001,001,2025-01-24_14h12.08.293,NESC3137_N400_exp,2023.2.3,146.1659217077025,2025-01-24 14h12.20.156201 -0400,
bee,0,52,52,14,,,,,,,,,,,,,,,,,,,,,0.22555290000002515,,,,0.17028149999998732,0.1704407999999944,,,,,,,,,,,,,,,,,,,,,,,,,,,,,,,,,,,,,,,,,,,,,,,,,,,,,,,,,,,,,,,,,,,,,,,,,,,sub-001,001,2025-01-24_14h12.08.293,NESC3137_N400_exp,2023.2.3,146.1659217077025,2025-01-24 14h12.20.156201 -0400,
desk,0,53,53,41,,,,,,,,,,,,,,,,,,,,,0.22555290000002515,,,,0.17056489999998803,0.1707903000000215,,,,,,,,,,,,,,,,,,,,,,,,,,,,,,,,,,,,,,,,,,,,,,,,,,,,,,,,,,,,,,,,,,,,,,,,,,,sub-001,001,2025-01-24_14h12.08.293,NESC3137_N400_exp,2023.2.3,146.1659217077025,2025-01-24 14h12.20.156201 -0400,
lemon,0,54,54,89,,,,,,,,,,,,,,,,,,,,,0.22555290000002515,,,,0.17090380000001915,0.17126560000002655,,,,,,,,,,,,,,,,,,,,,,,,,,,,,,,,,,,,,,,,,,,,,,,,,,,,,,,,,,,,,,,,,,,,,,,,,,,sub-001,001,2025-01-24_14h12.08.293,NESC3137_N400_exp,2023.2.3,146.1659217077025,2025-01-24 14h12.20.156201 -0400,
watermelon,0,55,55,171,,,,,,,,,,,,,,,,,,,,,0.22555290000002515,,,,0.17165679999999384,0.1719413000000145,,,,,,,,,,,,,,,,,,,,,,,,,,,,,,,,,,,,,,,,,,,,,,,,,,,,,,,,,,,,,,,,,,,,,,,,,,,sub-001,001,2025-01-24_14h12.08.293,NESC3137_N400_exp,2023.2.3,146.1659217077025,2025-01-24 14h12.20.156201 -0400,
swan,0,56,56,153,,,,,,,,,,,,,,,,,,,,,0.22555290000002515,,,,0.17210910000000013,0.1722652999999923,,,,,,,,,,,,,,,,,,,,,,,,,,,,,,,,,,,,,,,,,,,,,,,,,,,,,,,,,,,,,,,,,,,,,,,,,,,sub-001,001,2025-01-24_14h12.08.293,NESC3137_N400_exp,2023.2.3,146.1659217077025,2025-01-24 14h12.20.156201 -0400,
rollingpin,0,57,57,130,,,,,,,,,,,,,,,,,,,,,0.22555290000002515,,,,0.17237860000000182,0.17253940000000512,,,,,,,,,,,,,,,,,,,,,,,,,,,,,,,,,,,,,,,,,,,,,,,,,,,,,,,,,,,,,,,,,,,,,,,,,,,sub-001,001,2025-01-24_14h12.08.293,NESC3137_N400_exp,2023.2.3,146.1659217077025,2025-01-24 14h12.20.156201 -0400,
penguin,0,58,58,116,,,,,,,,,,,,,,,,,,,,,0.22555290000002515,,,,0.17264870000002475,0.17278859999998986,,,,,,,,,,,,,,,,,,,,,,,,,,,,,,,,,,,,,,,,,,,,,,,,,,,,,,,,,,,,,,,,,,,,,,,,,,,sub-001,001,2025-01-24_14h12.08.293,NESC3137_N400_exp,2023.2.3,146.1659217077025,2025-01-24 14h12.20.156201 -0400,
wineglass,0,59,59,177,,,,,,,,,,,,,,,,,,,,,0.22555290000002515,,,,0.1728962999999908,0.1730484000000274,,,,,,,,,,,,,,,,,,,,,,,,,,,,,,,,,,,,,,,,,,,,,,,,,,,,,,,,,,,,,,,,,,,,,,,,,,,sub-001,001,2025-01-24_14h12.08.293,NESC3137_N400_exp,2023.2.3,146.1659217077025,2025-01-24 14h12.20.156201 -0400,
heart,0,60,60,75,,,,,,,,,,,,,,,,,,,,,0.22555290000002515,,,,0.17322749999999587,0.17343199999999115,,,,,,,,,,,,,,,,,,,,,,,,,,,,,,,,,,,,,,,,,,,,,,,,,,,,,,,,,,,,,,,,,,,,,,,,,,,sub-001,001,2025-01-24_14h12.08.293,NESC3137_N400_exp,2023.2.3,146.1659217077025,2025-01-24 14h12.20.156201 -0400,
garbagecan,0,61,61,60,,,,,,,,,,,,,,,,,,,,,0.22555290000002515,,,,0.17363130000001092,0.17391309999999294,,,,,,,,,,,,,,,,,,,,,,,,,,,,,,,,,,,,,,,,,,,,,,,,,,,,,,,,,,,,,,,,,,,,,,,,,,,sub-001,001,2025-01-24_14h12.08.293,NESC3137_N400_exp,2023.2.3,146.1659217077025,2025-01-24 14h12.20.156201 -0400,
toothbrush,0,62,62,161,,,,,,,,,,,,,,,,,,,,,0.22555290000002515,,,,0.17405530000002045,0.17421469999999317,,,,,,,,,,,,,,,,,,,,,,,,,,,,,,,,,,,,,,,,,,,,,,,,,,,,,,,,,,,,,,,,,,,,,,,,,,,sub-001,001,2025-01-24_14h12.08.293,NESC3137_N400_exp,2023.2.3,146.1659217077025,2025-01-24 14h12.20.156201 -0400,
table,0,63,63,155,,,,,,,,,,,,,,,,,,,,,0.22555290000002515,,,,0.1743311000000176,0.174469600000009,,,,,,,,,,,,,,,,,,,,,,,,,,,,,,,,,,,,,,,,,,,,,,,,,,,,,,,,,,,,,,,,,,,,,,,,,,,sub-001,001,2025-01-24_14h12.08.293,NESC3137_N400_exp,2023.2.3,146.1659217077025,2025-01-24 14h12.20.156201 -0400,
apple,0,64,64,4,,,,,,,,,,,,,,,,,,,,,0.22555290000002515,,,,0.17460219999998117,0.174737499999992,,,,,,,,,,,,,,,,,,,,,,,,,,,,,,,,,,,,,,,,,,,,,,,,,,,,,,,,,,,,,,,,,,,,,,,,,,,sub-001,001,2025-01-24_14h12.08.293,NESC3137_N400_exp,2023.2.3,146.1659217077025,2025-01-24 14h12.20.156201 -0400,
lightbulb,0,65,65,91,,,,,,,,,,,,,,,,,,,,,0.22555290000002515,,,,0.1749002000000246,0.17504839999998012,,,,,,,,,,,,,,,,,,,,,,,,,,,,,,,,,,,,,,,,,,,,,,,,,,,,,,,,,,,,,,,,,,,,,,,,,,,sub-001,001,2025-01-24_14h12.08.293,NESC3137_N400_exp,2023.2.3,146.1659217077025,2025-01-24 14h12.20.156201 -0400,
candle,0,66,66,25,,,,,,,,,,,,,,,,,,,,,0.22555290000002515,,,,0.17519270000002507,0.17534549999999172,,,,,,,,,,,,,,,,,,,,,,,,,,,,,,,,,,,,,,,,,,,,,,,,,,,,,,,,,,,,,,,,,,,,,,,,,,,sub-001,001,2025-01-24_14h12.08.293,NESC3137_N400_exp,2023.2.3,146.1659217077025,2025-01-24 14h12.20.156201 -0400,
pipe,0,67,67,120,,,,,,,,,,,,,,,,,,,,,0.22555290000002515,,,,0.17547569999999268,0.17565560000002733,,,,,,,,,,,,,,,,,,,,,,,,,,,,,,,,,,,,,,,,,,,,,,,,,,,,,,,,,,,,,,,,,,,,,,,,,,,sub-001,001,2025-01-24_14h12.08.293,NESC3137_N400_exp,2023.2.3,146.1659217077025,2025-01-24 14h12.20.156201 -0400,
pear,0,68,68,114,,,,,,,,,,,,,,,,,,,,,0.22555290000002515,,,,0.17580959999997958,0.17602759999999762,,,,,,,,,,,,,,,,,,,,,,,,,,,,,,,,,,,,,,,,,,,,,,,,,,,,,,,,,,,,,,,,,,,,,,,,,,,sub-001,001,2025-01-24_14h12.08.293,NESC3137_N400_exp,2023.2.3,146.1659217077025,2025-01-24 14h12.20.156201 -0400,
tiger,0,69,69,159,,,,,,,,,,,,,,,,,,,,,0.22555290000002515,,,,0.17616689999999835,0.17632539999999608,,,,,,,,,,,,,,,,,,,,,,,,,,,,,,,,,,,,,,,,,,,,,,,,,,,,,,,,,,,,,,,,,,,,,,,,,,,sub-001,001,2025-01-24_14h12.08.293,NESC3137_N400_exp,2023.2.3,146.1659217077025,2025-01-24 14h12.20.156201 -0400,
fryingpan,0,70,70,59,,,,,,,,,,,,,,,,,,,,,0.22555290000002515,,,,0.1764468000000079,0.1765856000000099,,,,,,,,,,,,,,,,,,,,,,,,,,,,,,,,,,,,,,,,,,,,,,,,,,,,,,,,,,,,,,,,,,,,,,,,,,,sub-001,001,2025-01-24_14h12.08.293,NESC3137_N400_exp,2023.2.3,146.1659217077025,2025-01-24 14h12.20.156201 -0400,
gun,0,71,71,68,,,,,,,,,,,,,,,,,,,,,0.22555290000002515,,,,0.17670040000001563,0.17685549999998784,,,,,,,,,,,,,,,,,,,,,,,,,,,,,,,,,,,,,,,,,,,,,,,,,,,,,,,,,,,,,,,,,,,,,,,,,,,sub-001,001,2025-01-24_14h12.08.293,NESC3137_N400_exp,2023.2.3,146.1659217077025,2025-01-24 14h12.20.156201 -0400,
cigarette,0,72,72,33,,,,,,,,,,,,,,,,,,,,,0.22555290000002515,,,,0.17699360000000297,0.17715950000001612,,,,,,,,,,,,,,,,,,,,,,,,,,,,,,,,,,,,,,,,,,,,,,,,,,,,,,,,,,,,,,,,,,,,,,,,,,,sub-001,001,2025-01-24_14h12.08.293,NESC3137_N400_exp,2023.2.3,146.1659217077025,2025-01-24 14h12.20.156201 -0400,
horse,0,73,73,77,,,,,,,,,,,,,,,,,,,,,0.22555290000002515,,,,0.17729059999999208,0.1774518999999941,,,,,,,,,,,,,,,,,,,,,,,,,,,,,,,,,,,,,,,,,,,,,,,,,,,,,,,,,,,,,,,,,,,,,,,,,,,sub-001,001,2025-01-24_14h12.08.293,NESC3137_N400_exp,2023.2.3,146.1659217077025,2025-01-24 14h12.20.156201 -0400,
sandwich,0,74,74,134,,,,,,,,,,,,,,,,,,,,,0.22555290000002515,,,,0.177580799999987,0.17774370000000772,,,,,,,,,,,,,,,,,,,,,,,,,,,,,,,,,,,,,,,,,,,,,,,,,,,,,,,,,,,,,,,,,,,,,,,,,,,sub-001,001,2025-01-24_14h12.08.293,NESC3137_N400_exp,2023.2.3,146.1659217077025,2025-01-24 14h12.20.156201 -0400,
star,0,75,75,148,,,,,,,,,,,,,,,,,,,,,0.22555290000002515,,,,0.17790070000000924,0.17805579999998145,,,,,,,,,,,,,,,,,,,,,,,,,,,,,,,,,,,,,,,,,,,,,,,,,,,,,,,,,,,,,,,,,,,,,,,,,,,sub-001,001,2025-01-24_14h12.08.293,NESC3137_N400_exp,2023.2.3,146.1659217077025,2025-01-24 14h12.20.156201 -0400,
leaf,0,76,76,87,,,,,,,,,,,,,,,,,,,,,0.22555290000002515,,,,0.17817669999999453,0.1783469000000082,,,,,,,,,,,,,,,,,,,,,,,,,,,,,,,,,,,,,,,,,,,,,,,,,,,,,,,,,,,,,,,,,,,,,,,,,,,sub-001,001,2025-01-24_14h12.08.293,NESC3137_N400_exp,2023.2.3,146.1659217077025,2025-01-24 14h12.20.156201 -0400,
jacket,0,77,77,79,,,,,,,,,,,,,,,,,,,,,0.22555290000002515,,,,0.17846040000000585,0.1786260000000084,,,,,,,,,,,,,,,,,,,,,,,,,,,,,,,,,,,,,,,,,,,,,,,,,,,,,,,,,,,,,,,,,,,,,,,,,,,sub-001,001,2025-01-24_14h12.08.293,NESC3137_N400_exp,2023.2.3,146.1659217077025,2025-01-24 14h12.20.156201 -0400,
hammer,0,78,78,70,,,,,,,,,,,,,,,,,,,,,0.22555290000002515,,,,0.1787759000000051,0.17892799999998488,,,,,,,,,,,,,,,,,,,,,,,,,,,,,,,,,,,,,,,,,,,,,,,,,,,,,,,,,,,,,,,,,,,,,,,,,,,sub-001,001,2025-01-24_14h12.08.293,NESC3137_N400_exp,2023.2.3,146.1659217077025,2025-01-24 14h12.20.156201 -0400,
lightswitch,0,79,79,92,,,,,,,,,,,,,,,,,,,,,0.22555290000002515,,,,0.1790485000000217,0.1792080000000169,,,,,,,,,,,,,,,,,,,,,,,,,,,,,,,,,,,,,,,,,,,,,,,,,,,,,,,,,,,,,,,,,,,,,,,,,,,sub-001,001,2025-01-24_14h12.08.293,NESC3137_N400_exp,2023.2.3,146.1659217077025,2025-01-24 14h12.20.156201 -0400,
camel,0,80,80,24,,,,,,,,,,,,,,,,,,,,,0.22555290000002515,,,,0.17932830000000877,0.179477200000008,,,,,,,,,,,,,,,,,,,,,,,,,,,,,,,,,,,,,,,,,,,,,,,,,,,,,,,,,,,,,,,,,,,,,,,,,,,sub-001,001,2025-01-24_14h12.08.293,NESC3137_N400_exp,2023.2.3,146.1659217077025,2025-01-24 14h12.20.156201 -0400,
accordion,0,81,81,0,,,,,,,,,,,,,,,,,,,,,0.22555290000002515,,,,0.17962529999999788,0.17977869999998575,,,,,,,,,,,,,,,,,,,,,,,,,,,,,,,,,,,,,,,,,,,,,,,,,,,,,,,,,,,,,,,,,,,,,,,,,,,sub-001,001,2025-01-24_14h12.08.293,NESC3137_N400_exp,2023.2.3,146.1659217077025,2025-01-24 14h12.20.156201 -0400,
fence,0,82,82,53,,,,,,,,,,,,,,,,,,,,,0.22555290000002515,,,,0.17990850000001046,0.180060200000014,,,,,,,,,,,,,,,,,,,,,,,,,,,,,,,,,,,,,,,,,,,,,,,,,,,,,,,,,,,,,,,,,,,,,,,,,,,sub-001,001,2025-01-24_14h12.08.293,NESC3137_N400_exp,2023.2.3,146.1659217077025,2025-01-24 14h12.20.156201 -0400,
flag,0,83,83,55,,,,,,,,,,,,,,,,,,,,,0.22555290000002515,,,,0.180174500000021,0.18031359999997676,,,,,,,,,,,,,,,,,,,,,,,,,,,,,,,,,,,,,,,,,,,,,,,,,,,,,,,,,,,,,,,,,,,,,,,,,,,sub-001,001,2025-01-24_14h12.08.293,NESC3137_N400_exp,2023.2.3,146.1659217077025,2025-01-24 14h12.20.156201 -0400,
church,0,84,84,32,,,,,,,,,,,,,,,,,,,,,0.22555290000002515,,,,0.18043480000000045,0.18057129999999688,,,,,,,,,,,,,,,,,,,,,,,,,,,,,,,,,,,,,,,,,,,,,,,,,,,,,,,,,,,,,,,,,,,,,,,,,,,sub-001,001,2025-01-24_14h12.08.293,NESC3137_N400_exp,2023.2.3,146.1659217077025,2025-01-24 14h12.20.156201 -0400,
window,0,85,85,176,,,,,,,,,,,,,,,,,,,,,0.22555290000002515,,,,0.18070960000000014,0.1808538000000226,,,,,,,,,,,,,,,,,,,,,,,,,,,,,,,,,,,,,,,,,,,,,,,,,,,,,,,,,,,,,,,,,,,,,,,,,,,sub-001,001,2025-01-24_14h12.08.293,NESC3137_N400_exp,2023.2.3,146.1659217077025,2025-01-24 14h12.20.156201 -0400,
seahorse,0,86,86,137,,,,,,,,,,,,,,,,,,,,,0.22555290000002515,,,,0.1810308999999961,0.18119740000003048,,,,,,,,,,,,,,,,,,,,,,,,,,,,,,,,,,,,,,,,,,,,,,,,,,,,,,,,,,,,,,,,,,,,,,,,,,,sub-001,001,2025-01-24_14h12.08.293,NESC3137_N400_exp,2023.2.3,146.1659217077025,2025-01-24 14h12.20.156201 -0400,
barrel,0,87,87,10,,,,,,,,,,,,,,,,,,,,,0.22555290000002515,,,,0.18132380000002968,0.1814719999999852,,,,,,,,,,,,,,,,,,,,,,,,,,,,,,,,,,,,,,,,,,,,,,,,,,,,,,,,,,,,,,,,,,,,,,,,,,,sub-001,001,2025-01-24_14h12.08.293,NESC3137_N400_exp,2023.2.3,146.1659217077025,2025-01-24 14h12.20.156201 -0400,
umbrella,0,88,88,166,,,,,,,,,,,,,,,,,,,,,0.22555290000002515,,,,0.1815862999999922,0.1817290999999841,,,,,,,,,,,,,,,,,,,,,,,,,,,,,,,,,,,,,,,,,,,,,,,,,,,,,,,,,,,,,,,,,,,,,,,,,,,sub-001,001,2025-01-24_14h12.08.293,NESC3137_N400_exp,2023.2.3,146.1659217077025,2025-01-24 14h12.20.156201 -0400,
hair,0,89,89,69,,,,,,,,,,,,,,,,,,,,,0.22555290000002515,,,,0.18183920000001308,0.181989700000031,,,,,,,,,,,,,,,,,,,,,,,,,,,,,,,,,,,,,,,,,,,,,,,,,,,,,,,,,,,,,,,,,,,,,,,,,,,sub-001,001,2025-01-24_14h12.08.293,NESC3137_N400_exp,2023.2.3,146.1659217077025,2025-01-24 14h12.20.156201 -0400,
kangaroo,0,90,90,80,,,,,,,,,,,,,,,,,,,,,0.22555290000002515,,,,0.18210850000002665,0.1822465000000193,,,,,,,,,,,,,,,,,,,,,,,,,,,,,,,,,,,,,,,,,,,,,,,,,,,,,,,,,,,,,,,,,,,,,,,,,,,sub-001,001,2025-01-24_14h12.08.293,NESC3137_N400_exp,2023.2.3,146.1659217077025,2025-01-24 14h12.20.156201 -0400,
chair,0,91,91,30,,,,,,,,,,,,,,,,,,,,,0.22555290000002515,,,,0.182358000000022,0.1825372999999786,,,,,,,,,,,,,,,,,,,,,,,,,,,,,,,,,,,,,,,,,,,,,,,,,,,,,,,,,,,,,,,,,,,,,,,,,,,sub-001,001,2025-01-24_14h12.08.293,NESC3137_N400_exp,2023.2.3,146.1659217077025,2025-01-24 14h12.20.156201 -0400,
well,0,92,92,172,,,,,,,,,,,,,,,,,,,,,0.22555290000002515,,,,0.1826722999999788,0.18284369999997807,,,,,,,,,,,,,,,,,,,,,,,,,,,,,,,,,,,,,,,,,,,,,,,,,,,,,,,,,,,,,,,,,,,,,,,,,,,sub-001,001,2025-01-24_14h12.08.293,NESC3137_N400_exp,2023.2.3,146.1659217077025,2025-01-24 14h12.20.156201 -0400,
fox,0,93,93,57,,,,,,,,,,,,,,,,,,,,,0.22555290000002515,,,,0.18303550000001678,0.18323589999999967,,,,,,,,,,,,,,,,,,,,,,,,,,,,,,,,,,,,,,,,,,,,,,,,,,,,,,,,,,,,,,,,,,,,,,,,,,,sub-001,001,2025-01-24_14h12.08.293,NESC3137_N400_exp,2023.2.3,146.1659217077025,2025-01-24 14h12.20.156201 -0400,
skunk,0,94,94,142,,,,,,,,,,,,,,,,,,,,,0.22555290000002515,,,,0.18340790000002016,0.18360389999998006,,,,,,,,,,,,,,,,,,,,,,,,,,,,,,,,,,,,,,,,,,,,,,,,,,,,,,,,,,,,,,,,,,,,,,,,,,,sub-001,001,2025-01-24_14h12.08.293,NESC3137_N400_exp,2023.2.3,146.1659217077025,2025-01-24 14h12.20.156201 -0400,
hanger,0,95,95,72,,,,,,,,,,,,,,,,,,,,,0.22555290000002515,,,,0.18381990000000314,0.18402429999997594,,,,,,,,,,,,,,,,,,,,,,,,,,,,,,,,,,,,,,,,,,,,,,,,,,,,,,,,,,,,,,,,,,,,,,,,,,,sub-001,001,2025-01-24_14h12.08.293,NESC3137_N400_exp,2023.2.3,146.1659217077025,2025-01-24 14h12.20.156201 -0400,
wagon,0,96,96,170,,,,,,,,,,,,,,,,,,,,,0.22555290000002515,,,,0.18417599999997947,0.18440470000001596,,,,,,,,,,,,,,,,,,,,,,,,,,,,,,,,,,,,,,,,,,,,,,,,,,,,,,,,,,,,,,,,,,,,,,,,,,,sub-001,001,2025-01-24_14h12.08.293,NESC3137_N400_exp,2023.2.3,146.1659217077025,2025-01-24 14h12.20.156201 -0400,
cannon,0,97,97,26,,,,,,,,,,,,,,,,,,,,,0.22555290000002515,,,,0.18457740000002332,0.18477109999997765,,,,,,,,,,,,,,,,,,,,,,,,,,,,,,,,,,,,,,,,,,,,,,,,,,,,,,,,,,,,,,,,,,,,,,,,,,,sub-001,001,2025-01-24_14h12.08.293,NESC3137_N400_exp,2023.2.3,146.1659217077025,2025-01-24 14h12.20.156201 -0400,
butterfly,0,98,98,21,,,,,,,,,,,,,,,,,,,,,0.22555290000002515,,,,0.18493260000002465,0.18512049999998226,,,,,,,,,,,,,,,,,,,,,,,,,,,,,,,,,,,,,,,,,,,,,,,,,,,,,,,,,,,,,,,,,,,,,,,,,,,sub-001,001,2025-01-24_14h12.08.293,NESC3137_N400_exp,2023.2.3,146.1659217077025,2025-01-24 14h12.20.156201 -0400,
deer,0,99,99,40,,,,,,,,,,,,,,,,,,,,,0.22555290000002515,,,,0.18526220000001103,0.18542860000002293,,,,,,,,,,,,,,,,,,,,,,,,,,,,,,,,,,,,,,,,,,,,,,,,,,,,,,,,,,,,,,,,,,,,,,,,,,,sub-001,001,2025-01-24_14h12.08.293,NESC3137_N400_exp,2023.2.3,146.1659217077025,2025-01-24 14h12.20.156201 -0400,
crown,0,100,100,39,,,,,,,,,,,,,,,,,,,,,0.22555290000002515,,,,0.18559179999999742,0.1857921999999803,,,,,,,,,,,,,,,,,,,,,,,,,,,,,,,,,,,,,,,,,,,,,,,,,,,,,,,,,,,,,,,,,,,,,,,,,,,sub-001,001,2025-01-24_14h12.08.293,NESC3137_N400_exp,2023.2.3,146.1659217077025,2025-01-24 14h12.20.156201 -0400,
arm,0,101,101,5,,,,,,,,,,,,,,,,,,,,,0.22555290000002515,,,,0.18594719999998688,0.18615990000000693,,,,,,,,,,,,,,,,,,,,,,,,,,,,,,,,,,,,,,,,,,,,,,,,,,,,,,,,,,,,,,,,,,,,,,,,,,,sub-001,001,2025-01-24_14h12.08.293,NESC3137_N400_exp,2023.2.3,146.1659217077025,2025-01-24 14h12.20.156201 -0400,
ring,0,102,102,129,,,,,,,,,,,,,,,,,,,,,0.22555290000002515,,,,0.18629980000002888,0.1864760000000274,,,,,,,,,,,,,,,,,,,,,,,,,,,,,,,,,,,,,,,,,,,,,,,,,,,,,,,,,,,,,,,,,,,,,,,,,,,sub-001,001,2025-01-24_14h12.08.293,NESC3137_N400_exp,2023.2.3,146.1659217077025,2025-01-24 14h12.20.156201 -0400,
giraffe,0,103,103,61,,,,,,,,,,,,,,,,,,,,,0.22555290000002515,,,,0.1866092000000208,0.1867819999999938,,,,,,,,,,,,,,,,,,,,,,,,,,,,,,,,,,,,,,,,,,,,,,,,,,,,,,,,,,,,,,,,,,,,,,,,,,,sub-001,001,2025-01-24_14h12.08.293,NESC3137_N400_exp,2023.2.3,146.1659217077025,2025-01-24 14h12.20.156201 -0400,
truck,0,104,104,164,,,,,,,,,,,,,,,,,,,,,0.22555290000002515,,,,0.18691940000002205,0.18713470000000143,,,,,,,,,,,,,,,,,,,,,,,,,,,,,,,,,,,,,,,,,,,,,,,,,,,,,,,,,,,,,,,,,,,,,,,,,,,sub-001,001,2025-01-24_14h12.08.293,NESC3137_N400_exp,2023.2.3,146.1659217077025,2025-01-24 14h12.20.156201 -0400,
knife,0,105,105,84,,,,,,,,,,,,,,,,,,,,,0.22555290000002515,,,,0.18729200000001356,0.18746019999997543,,,,,,,,,,,,,,,,,,,,,,,,,,,,,,,,,,,,,,,,,,,,,,,,,,,,,,,,,,,,,,,,,,,,,,,,,,,sub-001,001,2025-01-24_14h12.08.293,NESC3137_N400_exp,2023.2.3,146.1659217077025,2025-01-24 14h12.20.156201 -0400,
rabbit,0,106,106,126,,,,,,,,,,,,,,,,,,,,,0.22555290000002515,,,,0.18760800000001154,0.18776769999999487,,,,,,,,,,,,,,,,,,,,,,,,,,,,,,,,,,,,,,,,,,,,,,,,,,,,,,,,,,,,,,,,,,,,,,,,,,,sub-001,001,2025-01-24_14h12.08.293,NESC3137_N400_exp,2023.2.3,146.1659217077025,2025-01-24 14h12.20.156201 -0400,
squirrel,0,107,107,147,,,,,,,,,,,,,,,,,,,,,0.22555290000002515,,,,0.18790930000000117,0.18810700000000224,,,,,,,,,,,,,,,,,,,,,,,,,,,,,,,,,,,,,,,,,,,,,,,,,,,,,,,,,,,,,,,,,,,,,,,,,,,sub-001,001,2025-01-24_14h12.08.293,NESC3137_N400_exp,2023.2.3,146.1659217077025,2025-01-24 14h12.20.156201 -0400,
rooster,0,108,108,131,,,,,,,,,,,,,,,,,,,,,0.22555290000002515,,,,0.18823739999999134,0.18839500000001408,,,,,,,,,,,,,,,,,,,,,,,,,,,,,,,,,,,,,,,,,,,,,,,,,,,,,,,,,,,,,,,,,,,,,,,,,,,sub-001,001,2025-01-24_14h12.08.293,NESC3137_N400_exp,2023.2.3,146.1659217077025,2025-01-24 14h12.20.156201 -0400,
monkey,0,109,109,98,,,,,,,,,,,,,,,,,,,,,0.22555290000002515,,,,0.1885255999999913,0.18867299999999432,,,,,,,,,,,,,,,,,,,,,,,,,,,,,,,,,,,,,,,,,,,,,,,,,,,,,,,,,,,,,,,,,,,,,,,,,,,sub-001,001,2025-01-24_14h12.08.293,NESC3137_N400_exp,2023.2.3,146.1659217077025,2025-01-24 14h12.20.156201 -0400,
bear,0,110,110,12,,,,,,,,,,,,,,,,,,,,,0.22555290000002515,,,,0.18879590000000235,0.1889426000000185,,,,,,,,,,,,,,,,,,,,,,,,,,,,,,,,,,,,,,,,,,,,,,,,,,,,,,,,,,,,,,,,,,,,,,,,,,,sub-001,001,2025-01-24_14h12.08.293,NESC3137_N400_exp,2023.2.3,146.1659217077025,2025-01-24 14h12.20.156201 -0400,
eye,0,111,111,51,,,,,,,,,,,,,,,,,,,,,0.22555290000002515,,,,0.18911400000001777,0.18933240000001206,,,,,,,,,,,,,,,,,,,,,,,,,,,,,,,,,,,,,,,,,,,,,,,,,,,,,,,,,,,,,,,,,,,,,,,,,,,sub-001,001,2025-01-24_14h12.08.293,NESC3137_N400_exp,2023.2.3,146.1659217077025,2025-01-24 14h12.20.156201 -0400,
envelope,0,112,112,50,,,,,,,,,,,,,,,,,,,,,0.22555290000002515,,,,0.18945270000000392,0.18960559999999305,,,,,,,,,,,,,,,,,,,,,,,,,,,,,,,,,,,,,,,,,,,,,,,,,,,,,,,,,,,,,,,,,,,,,,,,,,,sub-001,001,2025-01-24_14h12.08.293,NESC3137_N400_exp,2023.2.3,146.1659217077025,2025-01-24 14h12.20.156201 -0400,
cherry,0,113,113,31,,,,,,,,,,,,,,,,,,,,,0.22555290000002515,,,,0.18971929999997883,0.18985989999998765,,,,,,,,,,,,,,,,,,,,,,,,,,,,,,,,,,,,,,,,,,,,,,,,,,,,,,,,,,,,,,,,,,,,,,,,,,,sub-001,001,2025-01-24_14h12.08.293,NESC3137_N400_exp,2023.2.3,146.1659217077025,2025-01-24 14h12.20.156201 -0400,
skirt,0,114,114,141,,,,,,,,,,,,,,,,,,,,,0.22555290000002515,,,,0.18997960000001513,0.19014060000000654,,,,,,,,,,,,,,,,,,,,,,,,,,,,,,,,,,,,,,,,,,,,,,,,,,,,,,,,,,,,,,,,,,,,,,,,,,,sub-001,001,2025-01-24_14h12.08.293,NESC3137_N400_exp,2023.2.3,146.1659217077025,2025-01-24 14h12.20.156201 -0400,
sheep,0,115,115,139,,,,,,,,,,,,,,,,,,,,,0.22555290000002515,,,,0.19025520000002416,0.19040360000002465,,,,,,,,,,,,,,,,,,,,,,,,,,,,,,,,,,,,,,,,,,,,,,,,,,,,,,,,,,,,,,,,,,,,,,,,,,,sub-001,001,2025-01-24_14h12.08.293,NESC3137_N400_exp,2023.2.3,146.1659217077025,2025-01-24 14h12.20.156201 -0400,
cow,0,116,116,38,,,,,,,,,,,,,,,,,,,,,0.22555290000002515,,,,0.1905153000000155,0.19065110000002505,,,,,,,,,,,,,,,,,,,,,,,,,,,,,,,,,,,,,,,,,,,,,,,,,,,,,,,,,,,,,,,,,,,,,,,,,,,sub-001,001,2025-01-24_14h12.08.293,NESC3137_N400_exp,2023.2.3,146.1659217077025,2025-01-24 14h12.20.156201 -0400,
button,0,117,117,22,,,,,,,,,,,,,,,,,,,,,0.22555290000002515,,,,0.19076260000002776,0.19091900000000805,,,,,,,,,,,,,,,,,,,,,,,,,,,,,,,,,,,,,,,,,,,,,,,,,,,,,,,,,,,,,,,,,,,,,,,,,,,sub-001,001,2025-01-24_14h12.08.293,NESC3137_N400_exp,2023.2.3,146.1659217077025,2025-01-24 14h12.20.156201 -0400,
doll,0,118,118,43,,,,,,,,,,,,,,,,,,,,,0.22555290000002515,,,,0.19106210000001056,0.1912265000000275,,,,,,,,,,,,,,,,,,,,,,,,,,,,,,,,,,,,,,,,,,,,,,,,,,,,,,,,,,,,,,,,,,,,,,,,,,,sub-001,001,2025-01-24_14h12.08.293,NESC3137_N400_exp,2023.2.3,146.1659217077025,2025-01-24 14h12.20.156201 -0400,
cake,0,119,119,23,,,,,,,,,,,,,,,,,,,,,0.22555290000002515,,,,0.1914285000000291,0.19161559999997735,,,,,,,,,,,,,,,,,,,,,,,,,,,,,,,,,,,,,,,,,,,,,,,,,,,,,,,,,,,,,,,,,,,,,,,,,,,sub-001,001,2025-01-24_14h12.08.293,NESC3137_N400_exp,2023.2.3,146.1659217077025,2025-01-24 14h12.20.156201 -0400,
basket,0,120,120,11,,,,,,,,,,,,,,,,,,,,,0.22555290000002515,,,,0.19174359999999524,0.191929899999991,,,,,,,,,,,,,,,,,,,,,,,,,,,,,,,,,,,,,,,,,,,,,,,,,,,,,,,,,,,,,,,,,,,,,,,,,,,sub-001,001,2025-01-24_14h12.08.293,NESC3137_N400_exp,2023.2.3,146.1659217077025,2025-01-24 14h12.20.156201 -0400,
lobster,0,121,121,95,,,,,,,,,,,,,,,,,,,,,0.22555290000002515,,,,0.19206129999997756,0.19223190000002432,,,,,,,,,,,,,,,,,,,,,,,,,,,,,,,,,,,,,,,,,,,,,,,,,,,,,,,,,,,,,,,,,,,,,,,,,,,sub-001,001,2025-01-24_14h12.08.293,NESC3137_N400_exp,2023.2.3,146.1659217077025,2025-01-24 14h12.20.156201 -0400,
mountain,0,122,122,100,,,,,,,,,,,,,,,,,,,,,0.22555290000002515,,,,0.19236469999998462,0.19252360000001545,,,,,,,,,,,,,,,,,,,,,,,,,,,,,,,,,,,,,,,,,,,,,,,,,,,,,,,,,,,,,,,,,,,,,,,,,,,sub-001,001,2025-01-24_14h12.08.293,NESC3137_N400_exp,2023.2.3,146.1659217077025,2025-01-24 14h12.20.156201 -0400,
pumpkin,0,123,123,128,,,,,,,,,,,,,,,,,,,,,0.22555290000002515,,,,0.19264149999997926,0.19278009999999313,,,,,,,,,,,,,,,,,,,,,,,,,,,,,,,,,,,,,,,,,,,,,,,,,,,,,,,,,,,,,,,,,,,,,,,,,,,sub-001,001,2025-01-24_14h12.08.293,NESC3137_N400_exp,2023.2.3,146.1659217077025,2025-01-24 14h12.20.156201 -0400,
pot,0,124,124,123,,,,,,,,,,,,,,,,,,,,,0.22555290000002515,,,,0.19289450000002262,0.19302479999998923,,,,,,,,,,,,,,,,,,,,,,,,,,,,,,,,,,,,,,,,,,,,,,,,,,,,,,,,,,,,,,,,,,,,,,,,,,,sub-001,001,2025-01-24_14h12.08.293,NESC3137_N400_exp,2023.2.3,146.1659217077025,2025-01-24 14h12.20.156201 -0400,
cloud,0,125,125,35,,,,,,,,,,,,,,,,,,,,,0.22555290000002515,,,,0.1931465999999773,0.1932836000000293,,,,,,,,,,,,,,,,,,,,,,,,,,,,,,,,,,,,,,,,,,,,,,,,,,,,,,,,,,,,,,,,,,,,,,,,,,,sub-001,001,2025-01-24_14h12.08.293,NESC3137_N400_exp,2023.2.3,146.1659217077025,2025-01-24 14h12.20.156201 -0400,
windmill,0,126,126,175,,,,,,,,,,,,,,,,,,,,,0.22555290000002515,,,,0.1933948000000214,0.19352459999998928,,,,,,,,,,,,,,,,,,,,,,,,,,,,,,,,,,,,,,,,,,,,,,,,,,,,,,,,,,,,,,,,,,,,,,,,,,,sub-001,001,2025-01-24_14h12.08.293,NESC3137_N400_exp,2023.2.3,146.1659217077025,2025-01-24 14h12.20.156201 -0400,
airplane,0,127,127,1,,,,,,,,,,,,,,,,,,,,,0.22555290000002515,,,,0.19363939999999502,0.19382000000001653,,,,,,,,,,,,,,,,,,,,,,,,,,,,,,,,,,,,,,,,,,,,,,,,,,,,,,,,,,,,,,,,,,,,,,,,,,,sub-001,001,2025-01-24_14h12.08.293,NESC3137_N400_exp,2023.2.3,146.1659217077025,2025-01-24 14h12.20.156201 -0400,
ostrich,0,128,128,106,,,,,,,,,,,,,,,,,,,,,0.22555290000002515,,,,0.19392929999997932,0.1940574000000197,,,,,,,,,,,,,,,,,,,,,,,,,,,,,,,,,,,,,,,,,,,,,,,,,,,,,,,,,,,,,,,,,,,,,,,,,,,sub-001,001,2025-01-24_14h12.08.293,NESC3137_N400_exp,2023.2.3,146.1659217077025,2025-01-24 14h12.20.156201 -0400,
peacock,0,129,129,112,,,,,,,,,,,,,,,,,,,,,0.22555290000002515,,,,0.19418980000000374,0.1943267999999989,,,,,,,,,,,,,,,,,,,,,,,,,,,,,,,,,,,,,,,,,,,,,,,,,,,,,,,,,,,,,,,,,,,,,,,,,,,sub-001,001,2025-01-24_14h12.08.293,NESC3137_N400_exp,2023.2.3,146.1659217077025,2025-01-24 14h12.20.156201 -0400,
glasses,0,130,130,62,,,,,,,,,,,,,,,,,,,,,0.22555290000002515,,,,0.19443449999999984,0.19457090000003063,,,,,,,,,,,,,,,,,,,,,,,,,,,,,,,,,,,,,,,,,,,,,,,,,,,,,,,,,,,,,,,,,,,,,,,,,,,sub-001,001,2025-01-24_14h12.08.293,NESC3137_N400_exp,2023.2.3,146.1659217077025,2025-01-24 14h12.20.156201 -0400,
elephant,0,131,131,49,,,,,,,,,,,,,,,,,,,,,0.22555290000002515,,,,0.19468139999997902,0.19483930000001237,,,,,,,,,,,,,,,,,,,,,,,,,,,,,,,,,,,,,,,,,,,,,,,,,,,,,,,,,,,,,,,,,,,,,,,,,,,sub-001,001,2025-01-24_14h12.08.293,NESC3137_N400_exp,2023.2.3,146.1659217077025,2025-01-24 14h12.20.156201 -0400,
eagle,0,132,132,48,,,,,,,,,,,,,,,,,,,,,0.22555290000002515,,,,0.1949713999999858,0.19514040000001387,,,,,,,,,,,,,,,,,,,,,,,,,,,,,,,,,,,,,,,,,,,,,,,,,,,,,,,,,,,,,,,,,,,,,,,,,,,sub-001,001,2025-01-24_14h12.08.293,NESC3137_N400_exp,2023.2.3,146.1659217077025,2025-01-24 14h12.20.156201 -0400,
wrench,0,133,133,178,,,,,,,,,,,,,,,,,,,,,0.22555290000002515,,,,0.19531519999998181,0.19550270000002,,,,,,,,,,,,,,,,,,,,,,,,,,,,,,,,,,,,,,,,,,,,,,,,,,,,,,,,,,,,,,,,,,,,,,,,,,,sub-001,001,2025-01-24_14h12.08.293,NESC3137_N400_exp,2023.2.3,146.1659217077025,2025-01-24 14h12.20.156201 -0400,
onion,0,134,134,104,,,,,,,,,,,,,,,,,,,,,0.22555290000002515,,,,0.19565799999998035,0.1958263999999872,,,,,,,,,,,,,,,,,,,,,,,,,,,,,,,,,,,,,,,,,,,,,,,,,,,,,,,,,,,,,,,,,,,,,,,,,,,sub-001,001,2025-01-24_14h12.08.293,NESC3137_N400_exp,2023.2.3,146.1659217077025,2025-01-24 14h12.20.156201 -0400,
suitcase,0,135,135,151,,,,,,,,,,,,,,,,,,,,,0.22555290000002515,,,,0.19595079999999143,0.1961089000000129,,,,,,,,,,,,,,,,,,,,,,,,,,,,,,,,,,,,,,,,,,,,,,,,,,,,,,,,,,,,,,,,,,,,,,,,,,,sub-001,001,2025-01-24_14h12.08.293,NESC3137_N400_exp,2023.2.3,146.1659217077025,2025-01-24 14h12.20.156201 -0400,
snail,0,136,136,144,,,,,,,,,,,,,,,,,,,,,0.22555290000002515,,,,0.19625150000001668,0.1964247999999884,,,,,,,,,,,,,,,,,,,,,,,,,,,,,,,,,,,,,,,,,,,,,,,,,,,,,,,,,,,,,,,,,,,,,,,,,,,sub-001,001,2025-01-24_14h12.08.293,NESC3137_N400_exp,2023.2.3,146.1659217077025,2025-01-24 14h12.20.156201 -0400,
tree,0,137,137,163,,,,,,,,,,,,,,,,,,,,,0.22555290000002515,,,,0.196569199999999,0.19672459999998182,,,,,,,,,,,,,,,,,,,,,,,,,,,,,,,,,,,,,,,,,,,,,,,,,,,,,,,,,,,,,,,,,,,,,,,,,,,sub-001,001,2025-01-24_14h12.08.293,NESC3137_N400_exp,2023.2.3,146.1659217077025,2025-01-24 14h12.20.156201 -0400,
drum,0,138,138,46,,,,,,,,,,,,,,,,,,,,,0.22555290000002515,,,,0.19685010000000602,0.19701329999998052,,,,,,,,,,,,,,,,,,,,,,,,,,,,,,,,,,,,,,,,,,,,,,,,,,,,,,,,,,,,,,,,,,,,,,,,,,,sub-001,001,2025-01-24_14h12.08.293,NESC3137_N400_exp,2023.2.3,146.1659217077025,2025-01-24 14h12.20.156201 -0400,
wheel,0,139,139,173,,,,,,,,,,,,,,,,,,,,,0.22555290000002515,,,,0.19713250000000926,0.1972681000000307,,,,,,,,,,,,,,,,,,,,,,,,,,,,,,,,,,,,,,,,,,,,,,,,,,,,,,,,,,,,,,,,,,,,,,,,,,,sub-001,001,2025-01-24_14h12.08.293,NESC3137_N400_exp,2023.2.3,146.1659217077025,2025-01-24 14h12.20.156201 -0400,
plug,0,140,140,122,,,,,,,,,,,,,,,,,,,,,0.22555290000002515,,,,0.19737939999998844,0.1975137000000018,,,,,,,,,,,,,,,,,,,,,,,,,,,,,,,,,,,,,,,,,,,,,,,,,,,,,,,,,,,,,,,,,,,,,,,,,,,sub-001,001,2025-01-24_14h12.08.293,NESC3137_N400_exp,2023.2.3,146.1659217077025,2025-01-24 14h12.20.156201 -0400,
dog,0,141,141,42,,,,,,,,,,,,,,,,,,,,,0.22555290000002515,,,,0.19762620000000197,0.19776530000001458,,,,,,,,,,,,,,,,,,,,,,,,,,,,,,,,,,,,,,,,,,,,,,,,,,,,,,,,,,,,,,,,,,,,,,,,,,,sub-001,001,2025-01-24_14h12.08.293,NESC3137_N400_exp,2023.2.3,146.1659217077025,2025-01-24 14h12.20.156201 -0400,
axe,0,142,142,6,,,,,,,,,,,,,,,,,,,,,0.22555290000002515,,,,0.19787610000003042,0.1980682000000229,,,,,,,,,,,,,,,,,,,,,,,,,,,,,,,,,,,,,,,,,,,,,,,,,,,,,,,,,,,,,,,,,,,,,,,,,,,sub-001,001,2025-01-24_14h12.08.293,NESC3137_N400_exp,2023.2.3,146.1659217077025,2025-01-24 14h12.20.156201 -0400,
dresser,0,143,143,45,,,,,,,,,,,,,,,,,,,,,0.22555290000002515,,,,0.19818040000001247,0.19831449999998085,,,,,,,,,,,,,,,,,,,,,,,,,,,,,,,,,,,,,,,,,,,,,,,,,,,,,,,,,,,,,,,,,,,,,,,,,,,sub-001,001,2025-01-24_14h12.08.293,NESC3137_N400_exp,2023.2.3,146.1659217077025,2025-01-24 14h12.20.156201 -0400,
babycarriage,0,144,144,7,,,,,,,,,,,,,,,,,,,,,0.22555290000002515,,,,0.19842490000002044,0.1985631000000012,,,,,,,,,,,,,,,,,,,,,,,,,,,,,,,,,,,,,,,,,,,,,,,,,,,,,,,,,,,,,,,,,,,,,,,,,,,sub-001,001,2025-01-24_14h12.08.293,NESC3137_N400_exp,2023.2.3,146.1659217077025,2025-01-24 14h12.20.156201 -0400,
corn,0,145,145,37,,,,,,,,,,,,,,,,,,,,,0.22555290000002515,,,,0.19867379999999457,0.19880979999999226,,,,,,,,,,,,,,,,,,,,,,,,,,,,,,,,,,,,,,,,,,,,,,,,,,,,,,,,,,,,,,,,,,,,,,,,,,,sub-001,001,2025-01-24_14h12.08.293,NESC3137_N400_exp,2023.2.3,146.1659217077025,2025-01-24 14h12.20.156201 -0400,
peach,0,146,146,110,,,,,,,,,,,,,,,,,,,,,0.22555290000002515,,,,0.19891919999997754,0.19908809999998311,,,,,,,,,,,,,,,,,,,,,,,,,,,,,,,,,,,,,,,,,,,,,,,,,,,,,,,,,,,,,,,,,,,,,,,,,,,sub-001,001,2025-01-24_14h12.08.293,NESC3137_N400_exp,2023.2.3,146.1659217077025,2025-01-24 14h12.20.156201 -0400,
mushroom,0,147,147,101,,,,,,,,,,,,,,,,,,,,,0.22555290000002515,,,,0.19919590000000653,0.1993388000000209,,,,,,,,,,,,,,,,,,,,,,,,,,,,,,,,,,,,,,,,,,,,,,,,,,,,,,,,,,,,,,,,,,,,,,,,,,,sub-001,001,2025-01-24_14h12.08.293,NESC3137_N400_exp,2023.2.3,146.1659217077025,2025-01-24 14h12.20.156201 -0400,
lips,0,148,148,94,,,,,,,,,,,,,,,,,,,,,0.22555290000002515,,,,0.19944709999998622,0.19957410000000664,,,,,,,,,,,,,,,,,,,,,,,,,,,,,,,,,,,,,,,,,,,,,,,,,,,,,,,,,,,,,,,,,,,,,,,,,,,sub-001,001,2025-01-24_14h12.08.293,NESC3137_N400_exp,2023.2.3,146.1659217077025,2025-01-24 14h12.20.156201 -0400,
bed,0,149,149,13,,,,,,,,,,,,,,,,,,,,,0.22555290000002515,,,,0.19968019999998887,0.19980400000002874,,,,,,,,,,,,,,,,,,,,,,,,,,,,,,,,,,,,,,,,,,,,,,,,,,,,,,,,,,,,,,,,,,,,,,,,,,,sub-001,001,2025-01-24_14h12.08.293,NESC3137_N400_exp,2023.2.3,146.1659217077025,2025-01-24 14h12.20.156201 -0400,
duck,0,150,150,47,,,,,,,,,,,,,,,,,,,,,0.22555290000002515,,,,0.199913400000014,0.20009529999998676,,,,,,,,,,,,,,,,,,,,,,,,,,,,,,,,,,,,,,,,,,,,,,,,,,,,,,,,,,,,,,,,,,,,,,,,,,,sub-001,001,2025-01-24_14h12.08.293,NESC3137_N400_exp,2023.2.3,146.1659217077025,2025-01-24 14h12.20.156201 -0400,
grapes,0,151,151,66,,,,,,,,,,,,,,,,,,,,,0.22555290000002515,,,,0.20022640000001957,0.20036429999998973,,,,,,,,,,,,,,,,,,,,,,,,,,,,,,,,,,,,,,,,,,,,,,,,,,,,,,,,,,,,,,,,,,,,,,,,,,,sub-001,001,2025-01-24_14h12.08.293,NESC3137_N400_exp,2023.2.3,146.1659217077025,2025-01-24 14h12.20.156201 -0400,
tomato,0,152,152,160,,,,,,,,,,,,,,,,,,,,,0.22555290000002515,,,,0.20049499999998943,0.20064769999999044,,,,,,,,,,,,,,,,,,,,,,,,,,,,,,,,,,,,,,,,,,,,,,,,,,,,,,,,,,,,,,,,,,,,,,,,,,,sub-001,001,2025-01-24_14h12.08.293,NESC3137_N400_exp,2023.2.3,146.1659217077025,2025-01-24 14h12.20.156201 -0400,
house,0,153,153,78,,,,,,,,,,,,,,,,,,,,,0.22555290000002515,,,,0.20076640000002044,0.20091080000003103,,,,,,,,,,,,,,,,,,,,,,,,,,,,,,,,,,,,,,,,,,,,,,,,,,,,,,,,,,,,,,,,,,,,,,,,,,,sub-001,001,2025-01-24_14h12.08.293,NESC3137_N400_exp,2023.2.3,146.1659217077025,2025-01-24 14h12.20.156201 -0400,
lion,0,154,154,93,,,,,,,,,,,,,,,,,,,,,0.22555290000002515,,,,0.20101920000001883,0.20116120000000137,,,,,,,,,,,,,,,,,,,,,,,,,,,,,,,,,,,,,,,,,,,,,,,,,,,,,,,,,,,,,,,,,,,,,,,,,,,sub-001,001,2025-01-24_14h12.08.293,NESC3137_N400_exp,2023.2.3,146.1659217077025,2025-01-24 14h12.20.156201 -0400,
turtle,0,155,155,165,,,,,,,,,,,,,,,,,,,,,0.22555290000002515,,,,0.2012697999999773,0.2014224999999783,,,,,,,,,,,,,,,,,,,,,,,,,,,,,,,,,,,,,,,,,,,,,,,,,,,,,,,,,,,,,,,,,,,,,,,,,,,sub-001,001,2025-01-24_14h12.08.293,NESC3137_N400_exp,2023.2.3,146.1659217077025,2025-01-24 14h12.20.156201 -0400,
zebra,0,156,156,179,,,,,,,,,,,,,,,,,,,,,0.22555290000002515,,,,0.2015284999999949,0.20167290000000548,,,,,,,,,,,,,,,,,,,,,,,,,,,,,,,,,,,,,,,,,,,,,,,,,,,,,,,,,,,,,,,,,,,,,,,,,,,sub-001,001,2025-01-24_14h12.08.293,NESC3137_N400_exp,2023.2.3,146.1659217077025,2025-01-24 14h12.20.156201 -0400,
bread,0,157,157,20,,,,,,,,,,,,,,,,,,,,,0.22555290000002515,,,,0.20177949999998646,0.20192289999999957,,,,,,,,,,,,,,,,,,,,,,,,,,,,,,,,,,,,,,,,,,,,,,,,,,,,,,,,,,,,,,,,,,,,,,,,,,,sub-001,001,2025-01-24_14h12.08.293,NESC3137_N400_exp,2023.2.3,146.1659217077025,2025-01-24 14h12.20.156201 -0400,
strawberry,0,158,158,150,,,,,,,,,,,,,,,,,,,,,0.22555290000002515,,,,0.20202920000002678,0.2021586000000184,,,,,,,,,,,,,,,,,,,,,,,,,,,,,,,,,,,,,,,,,,,,,,,,,,,,,,,,,,,,,,,,,,,,,,,,,,,sub-001,001,2025-01-24_14h12.08.293,NESC3137_N400_exp,2023.2.3,146.1659217077025,2025-01-24 14h12.20.156201 -0400,
kettle,0,159,159,81,,,,,,,,,,,,,,,,,,,,,0.22555290000002515,,,,0.20226239999999507,0.20240260000002763,,,,,,,,,,,,,,,,,,,,,,,,,,,,,,,,,,,,,,,,,,,,,,,,,,,,,,,,,,,,,,,,,,,,,,,,,,,sub-001,001,2025-01-24_14h12.08.293,NESC3137_N400_exp,2023.2.3,146.1659217077025,2025-01-24 14h12.20.156201 -0400,
fence,0,160,160,52,,,,,,,,,,,,,,,,,,,,,0.22555290000002515,,,,0.20250600000002805,0.20264170000001513,,,,,,,,,,,,,,,,,,,,,,,,,,,,,,,,,,,,,,,,,,,,,,,,,,,,,,,,,,,,,,,,,,,,,,,,,,,sub-001,001,2025-01-24_14h12.08.293,NESC3137_N400_exp,2023.2.3,146.1659217077025,2025-01-24 14h12.20.156201 -0400,
violin,0,161,161,169,,,,,,,,,,,,,,,,,,,,,0.22555290000002515,,,,0.20274540000002617,0.20287990000002765,,,,,,,,,,,,,,,,,,,,,,,,,,,,,,,,,,,,,,,,,,,,,,,,,,,,,,,,,,,,,,,,,,,,,,,,,,,sub-001,001,2025-01-24_14h12.08.293,NESC3137_N400_exp,2023.2.3,146.1659217077025,2025-01-24 14h12.20.156201 -0400,
sled,0,162,162,143,,,,,,,,,,,,,,,,,,,,,0.22555290000002515,,,,0.2029833999999937,0.20311329999998406,,,,,,,,,,,,,,,,,,,,,,,,,,,,,,,,,,,,,,,,,,,,,,,,,,,,,,,,,,,,,,,,,,,,,,,,,,,sub-001,001,2025-01-24_14h12.08.293,NESC3137_N400_exp,2023.2.3,146.1659217077025,2025-01-24 14h12.20.156201 -0400,
alligator,0,163,163,2,,,,,,,,,,,,,,,,,,,,,0.22555290000002515,,,,0.20321560000002137,0.2033409000000006,,,,,,,,,,,,,,,,,,,,,,,,,,,,,,,,,,,,,,,,,,,,,,,,,,,,,,,,,,,,,,,,,,,,,,,,,,,sub-001,001,2025-01-24_14h12.08.293,NESC3137_N400_exp,2023.2.3,146.1659217077025,2025-01-24 14h12.20.156201 -0400,
peach,0,164,164,111,,,,,,,,,,,,,,,,,,,,,0.22555290000002515,,,,0.20346740000002228,0.20361889999998084,,,,,,,,,,,,,,,,,,,,,,,,,,,,,,,,,,,,,,,,,,,,,,,,,,,,,,,,,,,,,,,,,,,,,,,,,,,sub-001,001,2025-01-24_14h12.08.293,NESC3137_N400_exp,2023.2.3,146.1659217077025,2025-01-24 14h12.20.156201 -0400,
television,0,165,165,156,,,,,,,,,,,,,,,,,,,,,0.22555290000002515,,,,0.20372150000002875,0.2039571000000251,,,,,,,,,,,,,,,,,,,,,,,,,,,,,,,,,,,,,,,,,,,,,,,,,,,,,,,,,,,,,,,,,,,,,,,,,,,sub-001,001,2025-01-24_14h12.08.293,NESC3137_N400_exp,2023.2.3,146.1659217077025,2025-01-24 14h12.20.156201 -0400,
helicopter,0,166,166,76,,,,,,,,,,,,,,,,,,,,,0.22555290000002515,,,,0.20411639999997533,0.20431869999998753,,,,,,,,,,,,,,,,,,,,,,,,,,,,,,,,,,,,,,,,,,,,,,,,,,,,,,,,,,,,,,,,,,,,,,,,,,,sub-001,001,2025-01-24_14h12.08.293,NESC3137_N400_exp,2023.2.3,146.1659217077025,2025-01-24 14h12.20.156201 -0400,
flower,0,167,167,56,,,,,,,,,,,,,,,,,,,,,0.22555290000002515,,,,0.20450829999998632,0.20469439999999395,,,,,,,,,,,,,,,,,,,,,,,,,,,,,,,,,,,,,,,,,,,,,,,,,,,,,,,,,,,,,,,,,,,,,,,,,,,sub-001,001,2025-01-24_14h12.08.293,NESC3137_N400_exp,2023.2.3,146.1659217077025,2025-01-24 14h12.20.156201 -0400,
harp,0,168,168,73,,,,,,,,,,,,,,,,,,,,,0.22555290000002515,,,,0.2048351999999909,0.20502210000000787,,,,,,,,,,,,,,,,,,,,,,,,,,,,,,,,,,,,,,,,,,,,,,,,,,,,,,,,,,,,,,,,,,,,,,,,,,,sub-001,001,2025-01-24_14h12.08.293,NESC3137_N400_exp,2023.2.3,146.1659217077025,2025-01-24 14h12.20.156201 -0400,
screwdriver,0,169,169,136,,,,,,,,,,,,,,,,,,,,,0.22555290000002515,,,,0.20522720000002437,0.20551189999997632,,,,,,,,,,,,,,,,,,,,,,,,,,,,,,,,,,,,,,,,,,,,,,,,,,,,,,,,,,,,,,,,,,,,,,,,,,,sub-001,001,2025-01-24_14h12.08.293,NESC3137_N400_exp,2023.2.3,146.1659217077025,2025-01-24 14h12.20.156201 -0400,
guitar,0,170,170,67,,,,,,,,,,,,,,,,,,,,,0.22555290000002515,,,,0.2057247999999845,0.20596189999997705,,,,,,,,,,,,,,,,,,,,,,,,,,,,,,,,,,,,,,,,,,,,,,,,,,,,,,,,,,,,,,,,,,,,,,,,,,,sub-001,001,2025-01-24_14h12.08.293,NESC3137_N400_exp,2023.2.3,146.1659217077025,2025-01-24 14h12.20.156201 -0400,
goat,0,171,171,64,,,,,,,,,,,,,,,,,,,,,0.22555290000002515,,,,0.20610140000002275,0.20628649999997606,,,,,,,,,,,,,,,,,,,,,,,,,,,,,,,,,,,,,,,,,,,,,,,,,,,,,,,,,,,,,,,,,,,,,,,,,,,sub-001,001,2025-01-24_14h12.08.293,NESC3137_N400_exp,2023.2.3,146.1659217077025,2025-01-24 14h12.20.156201 -0400,
leg,0,172,172,88,,,,,,,,,,,,,,,,,,,,,0.22555290000002515,,,,0.20641719999997576,0.20660309999999527,,,,,,,,,,,,,,,,,,,,,,,,,,,,,,,,,,,,,,,,,,,,,,,,,,,,,,,,,,,,,,,,,,,,,,,,,,,sub-001,001,2025-01-24_14h12.08.293,NESC3137_N400_exp,2023.2.3,146.1659217077025,2025-01-24 14h12.20.156201 -0400,
ladder,0,173,173,85,,,,,,,,,,,,,,,,,,,,,0.22555290000002515,,,,0.20674070000001166,0.20696190000001025,,,,,,,,,,,,,,,,,,,,,,,,,,,,,,,,,,,,,,,,,,,,,,,,,,,,,,,,,,,,,,,,,,,,,,,,,,,sub-001,001,2025-01-24_14h12.08.293,NESC3137_N400_exp,2023.2.3,146.1659217077025,2025-01-24 14h12.20.156201 -0400,
pineapple,0,174,174,119,,,,,,,,,,,,,,,,,,,,,0.22555290000002515,,,,0.2070841000000314,0.20722490000002836,,,,,,,,,,,,,,,,,,,,,,,,,,,,,,,,,,,,,,,,,,,,,,,,,,,,,,,,,,,,,,,,,,,,,,,,,,,sub-001,001,2025-01-24_14h12.08.293,NESC3137_N400_exp,2023.2.3,146.1659217077025,2025-01-24 14h12.20.156201 -0400,
pants,0,175,175,109,,,,,,,,,,,,,,,,,,,,,0.22555290000002515,,,,0.2073366000000192,0.20746700000000828,,,,,,,,,,,,,,,,,,,,,,,,,,,,,,,,,,,,,,,,,,,,,,,,,,,,,,,,,,,,,,,,,,,,,,,,,,,sub-001,001,2025-01-24_14h12.08.293,NESC3137_N400_exp,2023.2.3,146.1659217077025,2025-01-24 14h12.20.156201 -0400,
lettuce,0,176,176,90,,,,,,,,,,,,,,,,,,,,,0.22555290000002515,,,,0.20757750000001352,0.20774970000002213,,,,,,,,,,,,,,,,,,,,,,,,,,,,,,,,,,,,,,,,,,,,,,,,,,,,,,,,,,,,,,,,,,,,,,,,,,,sub-001,001,2025-01-24_14h12.08.293,NESC3137_N400_exp,2023.2.3,146.1659217077025,2025-01-24 14h12.20.156201 -0400,
banana,0,177,177,9,,,,,,,,,,,,,,,,,,,,,0.22555290000002515,,,,0.2079018000000019,0.20806029999999964,,,,,,,,,,,,,,,,,,,,,,,,,,,,,,,,,,,,,,,,,,,,,,,,,,,,,,,,,,,,,,,,,,,,,,,,,,,sub-001,001,2025-01-24_14h12.08.293,NESC3137_N400_exp,2023.2.3,146.1659217077025,2025-01-24 14h12.20.156201 -0400,
bicycle,0,178,178,16,,,,,,,,,,,,,,,,,,,,,0.22555290000002515,,,,0.20818409999998266,0.20833659999999554,,,,,,,,,,,,,,,,,,,,,,,,,,,,,,,,,,,,,,,,,,,,,,,,,,,,,,,,,,,,,,,,,,,,,,,,,,,sub-001,001,2025-01-24_14h12.08.293,NESC3137_N400_exp,2023.2.3,146.1659217077025,2025-01-24 14h12.20.156201 -0400,
pitcher,0,179,179,121,,,,,,,,,,,,,,,,,,,,,0.22555290000002515,,,,0.2084528999999975,0.20858950000001641,,,,,,,,,,,,,,,,,,,,,,,,,,,,,,,,,,,,,,,,,,,,,,,,,,,,,,,,,,,,,,,,,,,,,,,,,,,sub-001,001,2025-01-24_14h12.08.293,NESC3137_N400_exp,2023.2.3,146.1659217077025,2025-01-24 14h12.20.156201 -0400,
,,,,,0,0,0,0,,,,,,,,,,,,,,,,,0.22555290000002515,,,,,,0.20907199999999193,0.2094860000000267,,,,,,,,,,,,,,,,,,,,,,,,,,,,,,,,,,,,,,,,,,,,,,,,,,,,,,,,,,,,,,,,,,,,,,,,,sub-001,001,2025-01-24_14h12.08.293,NESC3137_N400_exp,2023.2.3,146.1659217077025,2025-01-24 14h12.20.156201 -0400,
,,,,,,,,,,,,,,,,,,,,,,,,,,,,,,,,,0.20951120000000856,0.22555290000002515,0.22555290000002515,76.9038956,space,76.66632619999996,None,,,,,,,,,,,,,,,,,,,,,,,,,,,,,,,,,,,,,,,,,,,,,,,,,,,,,,,,,,,,,,,,,,sub-001,001,2025-01-24_14h12.08.293,NESC3137_N400_exp,2023.2.3,146.1659217077025,2025-01-24 14h12.20.156201 -0400,
,,,,,,,,,0,0,0,0,,,,,,,,,,,,,76.91824109999999,,,,,,,,,,,,,,,76.90500049999997,76.91824109999999,77.40913789999996,77.40915009999998,77.45095450000002,77.90922532999997,79.46715499999999,79.45438459999997,79.45439730000004,80.55566249999998,80.55566249999998,81.32126209999996,umbrella,resources/stimuli/umbrella.wav,left,left,1,760.5126000000837,left,1,0.7605126000000837,None,,,,,,,,,,,,,,,,,,,,,,,,,,,,,,,,,,,,,,,,,,,,sub-001,001,2025-01-24_14h12.08.293,NESC3137_N400_exp,2023.2.3,146.1659217077025,2025-01-24 14h12.20.156201 -0400,
,,,,,,,,,1,0,1,0,,,,,,,,,,,,,81.33336460000004,,,,,,,,,,,,,,,81.32256880000006,81.33336460000004,81.8265561,81.82656879999996,81.85425200000003,82.32759473000004,83.85468080000004,83.8501604,83.85017269999997,84.97276029999995,84.97276029999995,85.73069939999999,cigarette,resources/stimuli/cigarette.wav,left,left,1,751.7434000000094,left,1,0.7517434000000094,None,,,,,,,,,,,,,,,,,,,,,,,,,,,,,,,,,,,,,,,,,,,,sub-001,001,2025-01-24_14h12.08.293,NESC3137_N400_exp,2023.2.3,146.1659217077025,2025-01-24 14h12.20.156201 -0400,
,,,,,,,,,2,0,2,0,,,,,,,,,,,,,85.73661669999996,,,,,,,,,,,,,,,85.73197769999996,85.73661669999996,86.23069679999998,86.23070790000003,86.26520169999998,86.73776852999998,88.26500970000001,88.25860960000006,88.25862520000004,89.39803760000001,89.39803760000001,90.11079750000005,sled,resources/stimuli/sled.wav,left,left,1,702.9027999999471,left,1,0.7029027999999471,None,86.26520169999998,,,,,,,,,,,,,,,,,,,,,,,,,,,,,,,,,,,,,,,,,,,sub-001,001,2025-01-24_14h12.08.293,NESC3137_N400_exp,2023.2.3,146.1659217077025,2025-01-24 14h12.20.156201 -0400,
,,,,,,,,,3,0,3,0,,,,,,,,,,,,,90.12225910000001,,,,,,,,,,,,,,,90.1122019,90.12225910000001,90.61279459999997,90.6128051,90.64750280000004,91.11280573000005,92.64788730000004,92.64173599999998,92.64175329999995,93.77478750000006,93.77478750000006,94.39273140000006,lemon,resources/stimuli/lemon_foil.wav,right,right,1,613.8757999999598,right,1,0.6138757999999598,None,,,,,,,,,,,,,,,,,,,,,,,,,,,,,,,,,,,,,,,,,,,,sub-001,001,2025-01-24_14h12.08.293,NESC3137_N400_exp,2023.2.3,146.1659217077025,2025-01-24 14h12.20.156201 -0400,
,,,,,,,,,4,0,4,0,,,,,,,,,,,,,94.39799069999998,,,,,,,,,,,,,,,94.39391830000005,94.39799069999998,94.89166489999997,94.89167860000003,94.92060729999997,95.39830433000003,96.9271885,96.92046959999999,96.9204828,98.04502440000005,98.04502440000005,98.61467969999995,guitar,resources/stimuli/guitar.wav,left,left,1,567.0744000000241,left,1,0.5670744000000241,None,94.92060729999997,,,,,,,,,,,,,,,,,,,,,,,,,,,,,,,,,,,,,,,,,,,sub-001,001,2025-01-24_14h12.08.293,NESC3137_N400_exp,2023.2.3,146.1659217077025,2025-01-24 14h12.20.156201 -0400,
,,,,,,,,,5,0,5,0,,,,,,,,,,,,,98.62083190000004,,,,,,,,,,,,,,,98.615974,98.62083190000004,99.11475590000003,99.11477699999995,99.14872840000004,99.62163883,101.14900870000002,101.14267179999996,101.14268650000002,102.26711860000006,102.26711860000006,103.24772260000003,wagon,resources/stimuli/wagon_foil.wav,right,right,1,970.6498999998985,right,1,0.9706498999998985,None,99.14872840000004,,,,,,,,,,,,,,,,,,,,,,,,,,,,,,,,,,,,,,,,,,,sub-001,001,2025-01-24_14h12.08.293,NESC3137_N400_exp,2023.2.3,146.1659217077025,2025-01-24 14h12.20.156201 -0400,
,,,,,,,,,6,0,6,0,,,,,,,,,,,,,103.26078290000004,,,,,,,,,,,,,,,103.24927689999998,103.26078290000004,103.75433360000005,103.75435120000003,103.79939729999995,104.25556003000003,105.8026825,105.79691169999995,105.79692500000004,106.91481900000002,106.91481900000002,108.42315190000005,flower,resources/stimuli/flower.wav,left,left,1,1506.0891000000538,left,1,1.5060891000000538,None,,,,,,,,,,,,,,,,,,,,,,,,,,,,,,,,,,,,,,,,,,,,sub-001,001,2025-01-24_14h12.08.293,NESC3137_N400_exp,2023.2.3,146.1659217077025,2025-01-24 14h12.20.156201 -0400,
,,,,,,,,,7,0,7,0,,,,,,,,,,,,,108.43470689999998,,,,,,,,,,,,,,,108.42447190000001,108.43470689999998,108.92855579999997,108.9285696,108.96965570000003,109.42876093000001,110.97016279999997,110.96337109999996,110.96338140000006,112.07523329999998,112.07523329999998,112.76976770000005,babycarriage,resources/stimuli/babycarriage_foil.wav,right,right,1,682.0898000000852,right,1,0.6820898000000852,None,,,,,,,,,,,,,,,,,,,,,,,,,,,,,,,,,,,,,,,,,,,,sub-001,001,2025-01-24_14h12.08.293,NESC3137_N400_exp,2023.2.3,146.1659217077025,2025-01-24 14h12.20.156201 -0400,
,,,,,,,,,8,0,8,0,,,,,,,,,,,,,112.79067309999999,,,,,,,,,,,,,,,112.77110450000004,112.79067309999999,113.2762965,113.27631639999998,113.31915480000004,113.78145603000002,115.31792679999995,115.31232640000002,115.31233920000005,116.42262090000003,116.42262090000003,117.31929680000002,accordion,resources/stimuli/accordion_foil.wav,right,right,1,894.7479999999359,right,1,0.8947479999999359,None,,,,,,,,,,,,,,,,,,,,,,,,,,,,,,,,,,,,,,,,,,,,sub-001,001,2025-01-24_14h12.08.293,NESC3137_N400_exp,2023.2.3,146.1659217077025,2025-01-24 14h12.20.156201 -0400,
,,,,,,,,,9,0,9,0,,,,,,,,,,,,,117.32494520000006,,,,,,,,,,,,,,,117.32084479999997,117.32494520000006,117.82017909999996,117.82019199999996,117.85502760000003,118.32572463000002,119.87653819999997,119.86766410000001,119.8676764,120.97159890000006,120.97159890000006,121.74337629999997,lightbulb,resources/stimuli/lightbulb.wav,left,left,1,770.6670999999687,left,1,0.7706670999999687,None,,,,,,,,,,,,,,,,,,,,,,,,,,,,,,,,,,,,,,,,,,,,sub-001,001,2025-01-24_14h12.08.293,NESC3137_N400_exp,2023.2.3,146.1659217077025,2025-01-24 14h12.20.156201 -0400,
,,,,,,,,,10,0,10,0,,,,,,,,,,,,,121.75098889999998,,,,,,,,,,,,,,,121.74469089999997,121.75098889999998,122.24945359999998,122.24946330000006,122.28438950000003,122.75330322999997,124.28488720000001,124.27846760000006,124.27848279999995,125.40276139999997,125.40276139999997,126.14691469999997,chair,resources/stimuli/chair_foil.wav,right,right,1,738.2774000000154,right,1,0.7382774000000154,None,,,,,,,,,,,,,,,,,,,,,,,,,,,,,,,,,,,,,,,,,,,,sub-001,001,2025-01-24_14h12.08.293,NESC3137_N400_exp,2023.2.3,146.1659217077025,2025-01-24 14h12.20.156201 -0400,
,,,,,,,,,11,0,11,0,,,,,,,,,,,,,126.16134840000001,,,,,,,,,,,,,,,126.14846080000001,126.16134840000001,126.64824340000001,126.64825609999997,126.691169,127.15305163,128.70312159999997,128.69581190000002,128.69583100000006,129.80674330000005,129.80674330000005,130.7037115,pig,resources/stimuli/pig_foil.wav,right,right,1,894.3679000000202,right,1,0.8943679000000202,None,,,,,,,,,,,,,,,,,,,,,,,,,,,,,,,,,,,,,,,,,,,,sub-001,001,2025-01-24_14h12.08.293,NESC3137_N400_exp,2023.2.3,146.1659217077025,2025-01-24 14h12.20.156201 -0400,
,,,,,,,,,12,0,12,0,,,,,,,,,,,,,130.71610530000004,,,,,,,,,,,,,,,130.70498619999995,130.71610530000004,131.20947229999996,131.2094831,131.24403079999996,131.70940263000006,133.25158549999998,133.24011449999995,133.24012899999997,134.3557014,134.3557014,135.05985790000005,lamp,resources/stimuli/lamp_foil.wav,right,right,1,698.0044999999109,right,1,0.6980044999999109,None,,,,,,,,,,,,,,,,,,,,,,,,,,,,,,,,,,,,,,,,,,,,sub-001,001,2025-01-24_14h12.08.293,NESC3137_N400_exp,2023.2.3,146.1659217077025,2025-01-24 14h12.20.156201 -0400,
,,,,,,,,,13,0,13,0,,,,,,,,,,,,,135.07104469999996,,,,,,,,,,,,,,,135.06134679999997,135.07104469999996,135.56432999999998,135.5643412,135.60468510000004,136.06529953,137.6064306,137.59952749999997,137.59954190000002,138.71089350000005,138.71089350000005,139.5584634,bow,resources/stimuli/bow.wav,left,left,1,846.4822999999342,left,1,0.8464822999999342,None,,,,,,,,,,,,,,,,,,,,,,,,,,,,,,,,,,,,,,,,,,,,sub-001,001,2025-01-24_14h12.08.293,NESC3137_N400_exp,2023.2.3,146.1659217077025,2025-01-24 14h12.20.156201 -0400,
,,,,,,,,,14,0,14,0,,,,,,,,,,,,,139.56466800000004,,,,,,,,,,,,,,,139.55968349999995,139.56466800000004,140.05895060000006,140.05896579999995,140.10254260000005,140.56549923000006,142.10654400000004,142.10039039999998,142.1004056,143.21874599999995,143.21874599999995,143.80291889999995,onion,resources/stimuli/onion_foil.wav,right,right,1,579.6050999999807,right,1,0.5796050999999807,None,140.10254260000005,,,,,,,,,,,,,,,,,,,,,,,,,,,,,,,,,,,,,,,,,,,sub-001,001,2025-01-24_14h12.08.293,NESC3137_N400_exp,2023.2.3,146.1659217077025,2025-01-24 14h12.20.156201 -0400,
,,,,,,,,,15,0,15,0,,,,,,,,,,,,,143.81825729999997,,,,,,,,,,,,,,,143.80512730000004,143.81825729999997,144.31152920000005,144.31155180000002,144.35053299999998,144.80619613000005,146.3591055,146.35160349999995,146.35161550000004,147.46228939999997,147.46228939999997,148.1722577,snail,resources/stimuli/snail_foil.wav,right,right,1,704.4938000000229,right,1,0.7044938000000229,None,,,,,,,,,,,,,,,,,,,,,,,,,,,,,,,,,,,,,,,,,,,,sub-001,001,2025-01-24_14h12.08.293,NESC3137_N400_exp,2023.2.3,146.1659217077025,2025-01-24 14h12.20.156201 -0400,
,,,,,,,,,16,0,16,0,,,,,,,,,,,,,148.1844732,,,,,,,,,,,,,,,148.17375039999996,148.1844732,148.6781467,148.67816009999996,148.7217073,149.17768013000006,150.7280629,150.71604670000005,150.71605849999997,151.83810090000003,151.83810090000003,152.465218,hanger,resources/stimuli/hanger_foil.wav,right,right,1,624.7236000000385,right,1,0.6247236000000385,None,,,,,,,,,,,,,,,,,,,,,,,,,,,,,,,,,,,,,,,,,,,,sub-001,001,2025-01-24_14h12.08.293,NESC3137_N400_exp,2023.2.3,146.1659217077025,2025-01-24 14h12.20.156201 -0400,
,,,,,,,,,17,0,17,0,,,,,,,,,,,,,152.47817590000005,,,,,,,,,,,,,,,152.46655400000003,152.47817590000005,152.97900269999997,152.97901789999997,153.02729570000002,153.46986133000001,155.03264870000004,155.02596710000006,155.02598340000003,156.123939,156.123939,156.55526360000005,wineglass,resources/stimuli/wineglass_foil.wav,right,right,1,426.5357000000449,right,1,0.4265357000000449,None,,,,,,,,,,,,,,,,,,,,,,,,,,,,,,,,,,,,,,,,,,,,sub-001,001,2025-01-24_14h12.08.293,NESC3137_N400_exp,2023.2.3,146.1659217077025,2025-01-24 14h12.20.156201 -0400,
,,,,,,,,,18,0,18,0,,,,,,,,,,,,,156.56858749999998,,,,,,,,,,,,,,,156.5566389,156.56858749999998,157.0605079,157.06051759999997,157.0956418,157.56070753,159.0956041,159.0889143,159.08892499999996,160.2079991,160.2079991,160.96434860000005,bed,resources/stimuli/bed_foil.wav,right,right,1,750.3011999999671,right,1,0.7503011999999671,None,,,,,,,,,,,,,,,,,,,,,,,,,,,,,,,,,,,,,,,,,,,,sub-001,001,2025-01-24_14h12.08.293,NESC3137_N400_exp,2023.2.3,146.1659217077025,2025-01-24 14h12.20.156201 -0400,
,,,,,,,,,19,0,19,0,,,,,,,,,,,,,160.9706468,,,,,,,,,,,,,,,160.9655591,160.9706468,161.46453649999995,161.4645486,161.4942315,161.97100723,163.49217370000002,163.48677179999999,163.48678339999998,164.61703819999997,164.61703819999997,165.31982469999997,tree,resources/stimuli/tree_foil.wav,right,right,1,701.5237000000525,right,1,0.7015237000000525,None,161.4942315,,,,,,,,,,,,,,,,,,,,,,,,,,,,,,,,,,,,,,,,,,,sub-001,001,2025-01-24_14h12.08.293,NESC3137_N400_exp,2023.2.3,146.1659217077025,2025-01-24 14h12.20.156201 -0400,
,,,,,,,,,20,0,20,0,,,,,,,,,,,,,165.33269230000002,,,,,,,,,,,,,,,165.32105700000005,165.33269230000002,165.82595310000005,165.82596610000002,165.86117729999995,166.32630563000004,167.8608886,167.8539841,167.85399569999998,168.9813443,168.9813443,169.52186690000002,goat,resources/stimuli/goat_foil.wav,right,right,1,537.451199999964,right,1,0.537451199999964,None,,,,,,,,,,,,,,,,,,,,,,,,,,,,,,,,,,,,,,,,,,,,sub-001,001,2025-01-24_14h12.08.293,NESC3137_N400_exp,2023.2.3,146.1659217077025,2025-01-24 14h12.20.156201 -0400,
,,,,,,,,,21,0,21,0,,,,,,,,,,,,,169.53480110000004,,,,,,,,,,,,,,,169.5241219,169.53480110000004,170.03698879999996,170.03700250000003,170.07766010000006,170.52793303000004,172.07659919999998,172.07053939999997,172.0705555,173.18241719999997,173.18241719999997,173.98798440000002,hammer,resources/stimuli/hammer.wav,left,left,1,801.6388999999435,left,1,0.8016388999999435,None,,,,,,,,,,,,,,,,,,,,,,,,,,,,,,,,,,,,,,,,,,,,sub-001,001,2025-01-24_14h12.08.293,NESC3137_N400_exp,2023.2.3,146.1659217077025,2025-01-24 14h12.20.156201 -0400,
,,,,,,,,,22,0,22,0,,,,,,,,,,,,,174.00154300000003,,,,,,,,,,,,,,,173.989264,174.00154300000003,174.50245950000004,174.5024851,174.54269000000005,174.99370403000006,176.55000160000003,176.54529069999995,176.54530459999995,177.64692699999995,177.64692699999995,178.47459410000005,bee,resources/stimuli/bee_foil.wav,right,right,1,823.4826999999996,right,1,0.8234826999999996,None,,,,,,,,,,,,,,,,,,,,,,,,,,,,,,,,,,,,,,,,,,,,sub-001,001,2025-01-24_14h12.08.293,NESC3137_N400_exp,2023.2.3,146.1659217077025,2025-01-24 14h12.20.156201 -0400,
,,,,,,,,,23,0,23,0,,,,,,,,,,,,,178.48724769999995,,,,,,,,,,,,,,,178.47627119999999,178.48724769999995,178.98126489999999,178.98128279999997,179.02382489999997,179.48113773000006,181.0295461,181.0228153,181.02287259999997,182.1413485,182.1413485,182.62892200000005,fish,resources/stimuli/fish_foil.wav,right,right,1,481.67100000000573,right,1,0.48167100000000573,None,,,,,,,,,,,,,,,,,,,,,,,,,,,,,,,,,,,,,,,,,,,,sub-001,001,2025-01-24_14h12.08.293,NESC3137_N400_exp,2023.2.3,146.1659217077025,2025-01-24 14h12.20.156201 -0400,
,,,,,,,,,24,0,24,0,,,,,,,,,,,,,182.64129829999996,,,,,,,,,,,,,,,182.63060590000003,182.64129829999996,183.1339529,183.13396359999996,183.171487,183.63389973,185.1762418,185.16932100000002,185.16933650000004,186.28719229999996,186.28719229999996,186.77627220000005,cat,resources/stimuli/cat.wav,left,left,1,479.68279999997776,left,1,0.47968279999997776,None,,,,,,,,,,,,,,,,,,,,,,,,,,,,,,,,,,,,,,,,,,,,sub-001,001,2025-01-24_14h12.08.293,NESC3137_N400_exp,2023.2.3,146.1659217077025,2025-01-24 14h12.20.156201 -0400,
,,,,,,,,,25,0,25,0,,,,,,,,,,,,,186.78718069999996,,,,,,,,,,,,,,,186.77747979999998,186.78718069999996,187.28069850000003,187.2807108,187.30848329999998,187.77642203,189.3153378,189.30963509999998,189.30964720000003,190.42784699999999,190.42784699999999,190.8859223,snowman,resources/stimuli/snowman_foil.wav,right,right,1,451.25689999997576,right,1,0.45125689999997576,None,,,,,,,,,,,,,,,,,,,,,,,,,,,,,,,,,,,,,,,,,,,,sub-001,001,2025-01-24_14h12.08.293,NESC3137_N400_exp,2023.2.3,146.1659217077025,2025-01-24 14h12.20.156201 -0400,
,,,,,,,,,26,0,26,0,,,,,,,,,,,,,190.8990124,,,,,,,,,,,,,,,190.88726079999998,190.8990124,191.39473479999998,191.3947576,191.4274727,191.88593272999998,193.4276233,193.42138419999998,193.42139820000006,194.53864560000005,194.53864560000005,195.34542400000004,peach,resources/stimuli/peach.wav,left,left,1,804.1584999999714,left,1,0.8041584999999714,None,,,,,,,,,,,,,,,,,,,,,,,,,,,,,,,,,,,,,,,,,,,,sub-001,001,2025-01-24_14h12.08.293,NESC3137_N400_exp,2023.2.3,146.1659217077025,2025-01-24 14h12.20.156201 -0400,
,,,,,,,,,27,0,27,0,,,,,,,,,,,,,195.35867939999997,,,,,,,,,,,,,,,195.34706139999997,195.35867939999997,195.8539576,195.85397559999996,195.88757230000004,196.35179252999995,197.89378440000002,197.88669580000004,197.88671100000005,199.00506460000003,199.00506460000003,199.80416259999998,pipe,resources/stimuli/pipe_foil.wav,right,right,1,786.324200000081,right,1,0.786324200000081,None,,,,,,,,,,,,,,,,,,,,,,,,,,,,,,,,,,,,,,,,,,,,sub-001,001,2025-01-24_14h12.08.293,NESC3137_N400_exp,2023.2.3,146.1659217077025,2025-01-24 14h12.20.156201 -0400,
,,,,,,,,,28,0,28,0,,,,,,,,,,,,,199.8176729,,,,,,,,,,,,,,,199.80665600000003,199.8176729,200.3108712,200.31088359999995,200.34522669999996,200.80572382999998,202.35481269999997,202.34568500000006,202.34569849999997,203.46418569999997,203.46418569999997,203.95750679999998,corn,resources/stimuli/corn.wav,left,left,1,479.34040000006917,left,1,0.47934040000006917,None,,,,,,,,,,,,,,,,,,,,,,,,,,,,,,,,,,,,,,,,,,,,sub-001,001,2025-01-24_14h12.08.293,NESC3137_N400_exp,2023.2.3,146.1659217077025,2025-01-24 14h12.20.156201 -0400,
,,,,,,,,,29,0,29,0,,,,,,,,,,,,,203.9710114,,,,,,,,,,,,,,,203.95926860000003,203.9710114,204.46356870000005,204.46358119999996,204.49584650000003,204.95819352999996,206.5074143,206.49511409999997,206.49512610000005,207.6173544,207.6173544,208.27715080000002,mitten,resources/stimuli/mitten.wav,left,left,1,647.6080000001048,left,1,0.6476080000001048,None,,,,,,,,,,,,,,,,,,,,,,,,,,,,,,,,,,,,,,,,,,,,sub-001,001,2025-01-24_14h12.08.293,NESC3137_N400_exp,2023.2.3,146.1659217077025,2025-01-24 14h12.20.156201 -0400,
,,,,,,,,,30,0,30,0,,,,,,,,,,,,,208.28383720000005,,,,,,,,,,,,,,,208.27846340000002,208.28383720000005,208.7771558,208.77717060000003,208.81846339999998,209.28431223,210.81844010000003,210.81238760000002,210.81240150000002,211.93016000000006,211.93016000000006,212.49522640000004,garbagecan,resources/stimuli/garbagecan.wav,left,left,1,557.1661000000177,left,1,0.5571661000000177,None,208.81846339999998,,,,,,,,,,,,,,,,,,,,,,,,,,,,,,,,,,,,,,,,,,,sub-001,001,2025-01-24_14h12.08.293,NESC3137_N400_exp,2023.2.3,146.1659217077025,2025-01-24 14h12.20.156201 -0400,
,,,,,,,,,31,0,31,0,,,,,,,,,,,,,212.50709260000002,,,,,,,,,,,,,,,212.4964193,212.50709260000002,213.00020360000002,213.00021610000005,213.05239910000006,213.49590553000002,215.05538159999998,215.04923190000005,215.04924620000003,216.14858399999997,216.14858399999997,216.45988819999997,giraffe,resources/stimuli/giraffe.wav,left,left,1,307.5569000000087,left,1,0.3075569000000087,None,,,,,,,,,,,,,,,,,,,,,,,,,,,,,,,,,,,,,,,,,,,,sub-001,001,2025-01-24_14h12.08.293,NESC3137_N400_exp,2023.2.3,146.1659217077025,2025-01-24 14h12.20.156201 -0400,
,,,,,,,,,32,0,32,0,,,,,,,,,,,,,216.47275170000006,,,,,,,,,,,,,,,216.46221020000002,216.47275170000006,216.96563050000003,216.96564240000004,217.00807119999996,217.46581042999998,219.0075367,219.00131779999998,219.0013323,220.12657500000006,220.12657500000006,220.52304250000003,carrot,resources/stimuli/carrot.wav,left,left,1,392.6324999999906,left,1,0.3926324999999906,None,,,,,,,,,,,,,,,,,,,,,,,,,,,,,,,,,,,,,,,,,,,,sub-001,001,2025-01-24_14h12.08.293,NESC3137_N400_exp,2023.2.3,146.1659217077025,2025-01-24 14h12.20.156201 -0400,
,,,,,,,,,33,0,33,0,,,,,,,,,,,,,220.5360096,,,,,,,,,,,,,,,220.5245415,220.5360096,221.03142870000005,221.03144189999995,221.0730527,221.52899732999998,223.07818279999998,223.07101870000002,223.07103109999997,224.17508660000004,224.17508660000004,224.73274829999997,horse,resources/stimuli/horse_foil.wav,right,right,1,552.6380999999674,right,1,0.5526380999999674,None,,,,,,,,,,,,,,,,,,,,,,,,,,,,,,,,,,,,,,,,,,,,sub-001,001,2025-01-24_14h12.08.293,NESC3137_N400_exp,2023.2.3,146.1659217077025,2025-01-24 14h12.20.156201 -0400,
,,,,,,,,,34,0,34,0,,,,,,,,,,,,,224.74433819999996,,,,,,,,,,,,,,,224.73403130000003,224.74433819999996,225.23747029999998,225.23748159999997,225.2793267,225.73760103,227.28672690000002,227.27521800000005,227.2752304,228.38395910000003,228.38395910000003,228.90574050000004,anchor,resources/stimuli/anchor_foil.wav,right,right,1,520.461800000021,right,1,0.520461800000021,None,,,,,,,,,,,,,,,,,,,,,,,,,,,,,,,,,,,,,,,,,,,,sub-001,001,2025-01-24_14h12.08.293,NESC3137_N400_exp,2023.2.3,146.1659217077025,2025-01-24 14h12.20.156201 -0400,
,,,,,,,,,35,0,35,0,,,,,,,,,,,,,228.91874950000005,,,,,,,,,,,,,,,228.9069877,228.91874950000005,229.41227269999996,229.4122898,229.44206349999996,229.91196053000004,231.44702309999997,231.4402131,231.44022509999996,232.5584783,232.5584783,232.94928399999998,dresser,resources/stimuli/dresser_foil.wav,right,right,1,385.1945999999771,right,1,0.38519459999997707,None,,,,,,,,,,,,,,,,,,,,,,,,,,,,,,,,,,,,,,,,,,,,sub-001,001,2025-01-24_14h12.08.293,NESC3137_N400_exp,2023.2.3,146.1659217077025,2025-01-24 14h12.20.156201 -0400,
,,,,,,,,,36,0,36,0,,,,,,,,,,,,,232.96235559999997,,,,,,,,,,,,,,,232.95060310000002,232.96235559999997,233.45497659999995,233.45499239999998,233.4994029,233.95543292999997,235.51480759999998,235.50359129999998,235.50360500000005,236.60790909999997,236.60790909999997,237.33732049999998,arm,resources/stimuli/arm.wav,left,left,1,727.8597000000673,left,1,0.7278597000000673,None,,,,,,,,,,,,,,,,,,,,,,,,,,,,,,,,,,,,,,,,,,,,sub-001,001,2025-01-24_14h12.08.293,NESC3137_N400_exp,2023.2.3,146.1659217077025,2025-01-24 14h12.20.156201 -0400,
,,,,,,,,,37,0,37,0,,,,,,,,,,,,,237.34514310000003,,,,,,,,,,,,,,,237.33864969999996,237.34514310000003,237.8441816,237.84420259999996,237.87161999999995,238.34419413000006,239.88034399999998,239.86826060000004,239.86827350000004,240.98988960000003,240.98988960000003,241.6241104,cake,resources/stimuli/cake_foil.wav,right,right,1,626.6534999999749,right,1,0.6266534999999749,None,,,,,,,,,,,,,,,,,,,,,,,,,,,,,,,,,,,,,,,,,,,,sub-001,001,2025-01-24_14h12.08.293,NESC3137_N400_exp,2023.2.3,146.1659217077025,2025-01-24 14h12.20.156201 -0400,
,,,,,,,,,38,0,38,0,,,,,,,,,,,,,241.63570650000003,,,,,,,,,,,,,,,241.62534920000002,241.63570650000003,242.1298906,242.12990589999998,242.15720219999997,242.62958182999995,244.15728059999998,244.1504379,244.15045019999997,245.27574469999996,245.27574469999996,245.6449859,eye,resources/stimuli/eye.wav,left,left,1,365.0850999999875,left,1,0.3650850999999875,None,,,,,,,,,,,,,,,,,,,,,,,,,,,,,,,,,,,,,,,,,,,,sub-001,001,2025-01-24_14h12.08.293,NESC3137_N400_exp,2023.2.3,146.1659217077025,2025-01-24 14h12.20.156201 -0400,
,,,,,,,,,39,0,39,0,,,,,,,,,,,,,245.65719170000006,,,,,,,,,,,,,,,245.646728,245.65719170000006,246.1588622,246.1588767,246.2044752,246.65088133,248.2062593,248.20051210000003,248.20052549999997,249.29683159999996,249.29683159999996,249.8605955,fox,resources/stimuli/fox.wav,left,left,1,559.2566000000261,left,1,0.5592566000000261,None,,,,,,,,,,,,,,,,,,,,,,,,,,,,,,,,,,,,,,,,,,,,sub-001,001,2025-01-24_14h12.08.293,NESC3137_N400_exp,2023.2.3,146.1659217077025,2025-01-24 14h12.20.156201 -0400,
,,,,,,,,,40,0,40,0,,,,,,,,,,,,,249.8734943,,,,,,,,,,,,,,,249.8621903,249.8734943,250.37409580000002,250.37411100000003,250.41414779999997,250.86182022999998,252.4167187,252.40911120000004,252.40912559999998,253.52723510000004,253.52723510000004,254.070041,fence,resources/stimuli/fence_foil.wav,right,right,1,537.1872000000621,right,1,0.5371872000000621,None,,,,,,,,,,,,,,,,,,,,,,,,,,,,,,,,,,,,,,,,,,,,sub-001,001,2025-01-24_14h12.08.293,NESC3137_N400_exp,2023.2.3,146.1659217077025,2025-01-24 14h12.20.156201 -0400,
,,,,,,,,,41,0,41,0,,,,,,,,,,,,,254.0822397,,,,,,,,,,,,,,,254.07130669999998,254.0822397,254.5765697,254.57658320000002,254.61200449999995,255.07572403,256.62004640000004,256.6114964,256.61150790000005,257.72984060000005,257.72984060000005,258.41800630000006,pineapple,resources/stimuli/pineapple_foil.wav,right,right,1,686.866499999951,right,1,0.686866499999951,None,,,,,,,,,,,,,,,,,,,,,,,,,,,,,,,,,,,,,,,,,,,,sub-001,001,2025-01-24_14h12.08.293,NESC3137_N400_exp,2023.2.3,146.1659217077025,2025-01-24 14h12.20.156201 -0400,
,,,,,,,,,42,0,42,0,,,,,,,,,,,,,258.4300702,,,,,,,,,,,,,,,258.4193339,258.4300702,258.92387149999996,258.92388179999995,258.9594794,259.42535062999997,260.96863609999997,260.9545883,260.9546009,262.06978840000005,262.06978840000005,262.6192392,hand,resources/stimuli/hand.wav,left,left,1,546.7930999999453,left,1,0.5467930999999453,None,,,,,,,,,,,,,,,,,,,,,,,,,,,,,,,,,,,,,,,,,,,,sub-001,001,2025-01-24_14h12.08.293,NESC3137_N400_exp,2023.2.3,146.1659217077025,2025-01-24 14h12.20.156201 -0400,
,,,,,,,,,43,0,43,0,,,,,,,,,,,,,262.63334660000004,,,,,,,,,,,,,,,262.6211093,262.63334660000004,263.12565290000003,263.12566439999995,263.1623173,263.62643783000004,265.1672414,265.16113980000006,265.16115599999995,266.274376,266.274376,266.9885215,glasses,resources/stimuli/glasses.wav,left,left,1,710.60609999995,left,1,0.71060609999995,None,,,,,,,,,,,,,,,,,,,,,,,,,,,,,,,,,,,,,,,,,,,,sub-001,001,2025-01-24_14h12.08.293,NESC3137_N400_exp,2023.2.3,146.1659217077025,2025-01-24 14h12.20.156201 -0400,
,,,,,,,,,44,0,44,0,0,0,0,0,,,,,,,,,271.0365381,,,,,,,,,,,,,,,266.99015479999997,267.00154630000003,267.4906041,267.49062139999995,267.52919920000005,267.99731943,269.52961969999996,269.5226094,269.5226221,270.64127879999995,270.64127879999995,271.0233807,church,resources/stimuli/church_foil.wav,right,right,1,375.66049999998086,right,1,0.37566049999998086,None,,271.02442390000004,271.0365381,301.0345782,301.0345782,301.049729,305.91067419999996,space,4.871995599999991,None,,,,,,,,,,,,,,,,,,,,,,,,,,,,,,,,,,sub-001,001,2025-01-24_14h12.08.293,NESC3137_N400_exp,2023.2.3,146.1659217077025,2025-01-24 14h12.20.156201 -0400,
,,,,,,,,,44,0,44,0,,,,,,,,,,,,,,,,,,,,,,,,,,,,,,,,,,,,,,,,,,,,,,,,,,,,,,,,,,,,,,,,,,,,,,,,,,,,,,,,,,,,,,,,,,,,,sub-001,001,2025-01-24_14h12.08.293,NESC3137_N400_exp,2023.2.3,146.1659217077025,2025-01-24 14h12.20.156201 -0400,
,,,,,,,,,45,0,45,0,,,,,,,,,,,,,305.918569,,,,,,,,,,,,,,,305.9114609,305.918569,306.41731169999997,306.41732470000005,306.4603712,306.91740693,308.46544120000004,308.4592706,308.45928239999995,309.56378,309.56378,310.1767356,squirrel,resources/stimuli/squirrel.wav,left,left,1,606.3813000000664,left,1,0.6063813000000664,None,,,,,,,,,,,,,,,,,,,,,,,,,,,,,,,,,,,,,,,,,,,,sub-001,001,2025-01-24_14h12.08.293,NESC3137_N400_exp,2023.2.3,146.1659217077025,2025-01-24 14h12.20.156201 -0400,
,,,,,,,,,46,0,46,0,,,,,,,,,,,,,310.1881941,,,,,,,,,,,,,,,310.1779607,310.1881941,310.68213069999996,310.68214029999996,310.72680540000005,311.18119393,312.73159400000003,312.7257395,312.72575250000006,313.83490320000004,313.83490320000004,314.30919910000006,pot,resources/stimuli/pot_foil.wav,right,right,1,470.7329999999956,right,1,0.4707329999999956,None,,,,,,,,,,,,,,,,,,,,,,,,,,,,,,,,,,,,,,,,,,,,sub-001,001,2025-01-24_14h12.08.293,NESC3137_N400_exp,2023.2.3,146.1659217077025,2025-01-24 14h12.20.156201 -0400,
,,,,,,,,,47,0,47,0,,,,,,,,,,,,,314.32222040000005,,,,,,,,,,,,,,,314.3109933,314.32222040000005,314.81390070000003,314.81391290000005,314.8486228,315.31429233,316.85160179999997,316.84269809999995,316.8427159,317.9601254,317.9601254,318.66247289999995,banana,resources/stimuli/banana.wav,left,left,1,698.656700000015,left,1,0.698656700000015,None,,,,,,,,,,,,,,,,,,,,,,,,,,,,,,,,,,,,,,,,,,,,sub-001,001,2025-01-24_14h12.08.293,NESC3137_N400_exp,2023.2.3,146.1659217077025,2025-01-24 14h12.20.156201 -0400,
,,,,,,,,,48,0,48,0,,,,,,,,,,,,,318.66865950000005,,,,,,,,,,,,,,,318.66386760000006,318.66865950000005,319.16232140000005,319.16233489999996,319.1965452,319.66328293,321.19661160000004,321.19042540000004,321.19043700000003,322.31492080000004,322.31492080000004,323.09445780000004,rollingpin,resources/stimuli/rollingpin.wav,left,left,1,775.3377999999884,left,1,0.7753377999999884,None,319.1965452,,,,,,,,,,,,,,,,,,,,,,,,,,,,,,,,,,,,,,,,,,,sub-001,001,2025-01-24_14h12.08.293,NESC3137_N400_exp,2023.2.3,146.1659217077025,2025-01-24 14h12.20.156201 -0400,
,,,,,,,,,49,0,49,0,,,,,,,,,,,,,323.1076704,,,,,,,,,,,,,,,323.0960548,323.1076704,323.6020855,323.6020973,323.63696569999996,324.09443432999996,325.6417767,325.63596060000003,325.6359763,326.7537196,326.7537196,327.33758989999995,book,resources/stimuli/book.wav,left,left,1,576.7753000000084,left,1,0.5767753000000084,None,,,,,,,,,,,,,,,,,,,,,,,,,,,,,,,,,,,,,,,,,,,,sub-001,001,2025-01-24_14h12.08.293,NESC3137_N400_exp,2023.2.3,146.1659217077025,2025-01-24 14h12.20.156201 -0400,
,,,,,,,,,50,0,50,0,,,,,,,,,,,,,327.35044999999997,,,,,,,,,,,,,,,327.33916819999996,327.35044999999997,327.8439354,327.84394690000005,327.87830790000004,328.34407723,329.87872480000004,329.8728666,329.87288170000005,330.992912,330.992912,331.5125234,purse,resources/stimuli/purse_foil.wav,right,right,1,513.8925999999628,right,1,0.5138925999999628,None,,,,,,,,,,,,,,,,,,,,,,,,,,,,,,,,,,,,,,,,,,,,sub-001,001,2025-01-24_14h12.08.293,NESC3137_N400_exp,2023.2.3,146.1659217077025,2025-01-24 14h12.20.156201 -0400,
,,,,,,,,,51,0,51,0,,,,,,,,,,,,,331.5248403,,,,,,,,,,,,,,,331.51387919999996,331.5248403,332.0180562,332.0180734,332.05448170000005,332.51273813000006,334.06031349999995,334.0536762,334.05369060000004,335.1639898,335.1639898,335.637403,key,resources/stimuli/key_foil.wav,right,right,1,470.4259000000093,right,1,0.4704259000000093,None,,,,,,,,,,,,,,,,,,,,,,,,,,,,,,,,,,,,,,,,,,,,sub-001,001,2025-01-24_14h12.08.293,NESC3137_N400_exp,2023.2.3,146.1659217077025,2025-01-24 14h12.20.156201 -0400,
,,,,,,,,,52,0,52,0,,,,,,,,,,,,,335.65084399999995,,,,,,,,,,,,,,,335.6389926,335.65084399999995,336.1435327,336.1435413,336.17818589999996,336.63777193000004,338.17873649999996,338.1721743,338.17219029999995,339.2910334,339.2910334,340.01523990000004,mushroom,resources/stimuli/mushroom_foil.wav,right,right,1,720.1522999999952,right,1,0.7201522999999952,None,,,,,,,,,,,,,,,,,,,,,,,,,,,,,,,,,,,,,,,,,,,,sub-001,001,2025-01-24_14h12.08.293,NESC3137_N400_exp,2023.2.3,146.1659217077025,2025-01-24 14h12.20.156201 -0400,
,,,,,,,,,53,0,53,0,,,,,,,,,,,,,340.0301245,,,,,,,,,,,,,,,340.0164369,340.0301245,340.52688800000004,340.5269003,340.5692617,341.01948563,342.5679972,342.56205159999996,342.56207150000006,343.6668533,343.6668533,344.04915910000005,pumpkin,resources/stimuli/pumpkin.wav,left,left,1,376.3512000000446,left,1,0.37635120000004463,None,,,,,,,,,,,,,,,,,,,,,,,,,,,,,,,,,,,,,,,,,,,,sub-001,001,2025-01-24_14h12.08.293,NESC3137_N400_exp,2023.2.3,146.1659217077025,2025-01-24 14h12.20.156201 -0400,
,,,,,,,,,54,0,54,0,,,,,,,,,,,,,344.06202890000003,,,,,,,,,,,,,,,344.05055799999997,344.06202890000003,344.5551575,344.55517119999996,344.5920111,345.05742232999995,346.59636329999995,346.5907461,346.59076009999995,347.70100900000006,347.70100900000006,348.16779290000005,screwdriver,resources/stimuli/screwdriver.wav,left,left,1,462.0112000000063,left,1,0.4620112000000063,None,,,,,,,,,,,,,,,,,,,,,,,,,,,,,,,,,,,,,,,,,,,,sub-001,001,2025-01-24_14h12.08.293,NESC3137_N400_exp,2023.2.3,146.1659217077025,2025-01-24 14h12.20.156201 -0400,
,,,,,,,,,55,0,55,0,,,,,,,,,,,,,348.1803944,,,,,,,,,,,,,,,348.16930610000003,348.1803944,348.67313229999996,348.6731422,348.7088402,349.17354243000005,350.70842869999996,350.70213700000005,350.70215520000005,351.8200694,351.8200694,352.30679430000004,axe,resources/stimuli/axe.wav,left,left,1,479.10060000003796,left,1,0.47910060000003796,None,,,,,,,,,,,,,,,,,,,,,,,,,,,,,,,,,,,,,,,,,,,,sub-001,001,2025-01-24_14h12.08.293,NESC3137_N400_exp,2023.2.3,146.1659217077025,2025-01-24 14h12.20.156201 -0400,
,,,,,,,,,56,0,56,0,,,,,,,,,,,,,352.3195821,,,,,,,,,,,,,,,352.3084898,352.3195821,352.81284980000004,352.8128598,352.8491486,353.31300283,354.8476956,354.8418751,354.8418956,355.95942310000004,355.95942310000004,356.5178216,vest,resources/stimuli/vest.wav,left,left,1,547.449400000005,left,1,0.547449400000005,None,,,,,,,,,,,,,,,,,,,,,,,,,,,,,,,,,,,,,,,,,,,,sub-001,001,2025-01-24_14h12.08.293,NESC3137_N400_exp,2023.2.3,146.1659217077025,2025-01-24 14h12.20.156201 -0400,
,,,,,,,,,57,0,57,0,,,,,,,,,,,,,356.5290379,,,,,,,,,,,,,,,356.5192775,356.5290379,357.02910479999997,357.029116,357.0710909,357.52591713,359.07059699999996,359.06399930000003,359.0640206,360.17558820000005,360.17558820000005,360.8218522,airplane,resources/stimuli/airplane_foil.wav,right,right,1,636.1192000000528,right,1,0.6361192000000528,None,,,,,,,,,,,,,,,,,,,,,,,,,,,,,,,,,,,,,,,,,,,,sub-001,001,2025-01-24_14h12.08.293,NESC3137_N400_exp,2023.2.3,146.1659217077025,2025-01-24 14h12.20.156201 -0400,
,,,,,,,,,58,0,58,0,,,,,,,,,,,,,360.8280378,,,,,,,,,,,,,,,360.8230573,360.8280378,361.3221408,361.3221524,361.3634344,361.82827903000003,363.3703923,363.3587836,363.35879659999995,364.4755323,364.4755323,364.99001289999995,clock,resources/stimuli/clock.wav,left,left,1,511.43789999991895,left,1,0.511437899999919,None,361.3634344,,,,,,,,,,,,,,,,,,,,,,,,,,,,,,,,,,,,,,,,,,,sub-001,001,2025-01-24_14h12.08.293,NESC3137_N400_exp,2023.2.3,146.1659217077025,2025-01-24 14h12.20.156201 -0400,
,,,,,,,,,59,0,59,0,,,,,,,,,,,,,365.00228020000003,,,,,,,,,,,,,,,364.9913429,365.00228020000003,365.4958757,365.4958886,365.5370072,365.99701703,367.53735539999997,367.5312959,367.53130949999996,368.6419083,368.6419083,369.15627639999997,wheel,resources/stimuli/wheel.wav,left,left,1,513.0525000000716,left,1,0.5130525000000716,None,,,,,,,,,,,,,,,,,,,,,,,,,,,,,,,,,,,,,,,,,,,,sub-001,001,2025-01-24_14h12.08.293,NESC3137_N400_exp,2023.2.3,146.1659217077025,2025-01-24 14h12.20.156201 -0400,
,,,,,,,,,60,0,60,0,,,,,,,,,,,,,369.1626968,,,,,,,,,,,,,,,369.15751389999997,369.1626968,369.65696570000006,369.6569808,369.6994249,370.16342543,371.70433040000006,371.6982105,371.69822730000004,372.8092284,372.8092284,373.1298016,lightswitch,resources/stimuli/lightswitch_foil.wav,right,right,1,315.3182000000925,right,1,0.3153182000000925,None,,,,,,,,,,,,,,,,,,,,,,,,,,,,,,,,,,,,,,,,,,,,sub-001,001,2025-01-24_14h12.08.293,NESC3137_N400_exp,2023.2.3,146.1659217077025,2025-01-24 14h12.20.156201 -0400,
,,,,,,,,,61,0,61,0,,,,,,,,,,,,,373.14405030000006,,,,,,,,,,,,,,,373.13116499999995,373.14405030000006,373.6456444,373.64565669999996,373.6863917,374.13593903,375.69150900000005,375.6848088,375.68482309999996,376.79605610000004,376.79605610000004,377.17896260000003,lettuce,resources/stimuli/lettuce.wav,left,left,1,376.31339999995816,left,1,0.37631339999995816,None,,,,,,,,,,,,,,,,,,,,,,,,,,,,,,,,,,,,,,,,,,,,sub-001,001,2025-01-24_14h12.08.293,NESC3137_N400_exp,2023.2.3,146.1659217077025,2025-01-24 14h12.20.156201 -0400,
,,,,,,,,,62,0,62,0,,,,,,,,,,,,,377.19156389999995,,,,,,,,,,,,,,,377.18042240000005,377.19156389999995,377.68504579999995,377.6850563,377.719172,378.18487973,379.72681459999995,379.7168198,379.71683249999995,380.8382561,380.8382561,381.33942399999995,eagle,resources/stimuli/eagle.wav,left,left,1,493.564699999979,left,1,0.493564699999979,None,,,,,,,,,,,,,,,,,,,,,,,,,,,,,,,,,,,,,,,,,,,,sub-001,001,2025-01-24_14h12.08.293,NESC3137_N400_exp,2023.2.3,146.1659217077025,2025-01-24 14h12.20.156201 -0400,
,,,,,,,,,63,0,63,0,,,,,,,,,,,,,381.3519647,,,,,,,,,,,,,,,381.34075709999996,381.3519647,381.84483359999996,381.84484290000006,381.8796898,382.33948073000005,383.8802969,383.87559289999996,383.8756074,384.9922708,384.9922708,385.47272449999997,hat,resources/stimuli/hat_foil.wav,right,right,1,476.0283000000527,right,1,0.4760283000000527,None,,,,,,,,,,,,,,,,,,,,,,,,,,,,,,,,,,,,,,,,,,,,sub-001,001,2025-01-24_14h12.08.293,NESC3137_N400_exp,2023.2.3,146.1659217077025,2025-01-24 14h12.20.156201 -0400,
,,,,,,,,,64,0,64,0,,,,,,,,,,,,,385.48440080000006,,,,,,,,,,,,,,,385.4739245,385.48440080000006,385.9799645,385.97997449999997,386.01286969999995,386.47809752999996,388.01287529999996,388.00641,388.0064303,389.12420760000003,389.12420760000003,389.8343276,pants,resources/stimuli/pants.wav,left,left,1,703.6973000000444,left,1,0.7036973000000444,None,,,,,,,,,,,,,,,,,,,,,,,,,,,,,,,,,,,,,,,,,,,,sub-001,001,2025-01-24_14h12.08.293,NESC3137_N400_exp,2023.2.3,146.1659217077025,2025-01-24 14h12.20.156201 -0400,
,,,,,,,,,65,0,65,0,,,,,,,,,,,,,389.84698399999996,,,,,,,,,,,,,,,389.8356451,389.84698399999996,390.33974400000005,390.33975730000003,390.37682279999996,390.83976153,392.3813296,392.3761112,392.3761245,393.49965690000005,393.49965690000005,394.0973635,tiger,resources/stimuli/tiger.wav,left,left,1,592.2342999999728,left,1,0.5922342999999728,None,,,,,,,,,,,,,,,,,,,,,,,,,,,,,,,,,,,,,,,,,,,,sub-001,001,2025-01-24_14h12.08.293,NESC3137_N400_exp,2023.2.3,146.1659217077025,2025-01-24 14h12.20.156201 -0400,
,,,,,,,,,66,0,66,0,,,,,,,,,,,,,394.10392099999996,,,,,,,,,,,,,,,394.0985785,394.10392099999996,394.60550859999995,394.605524,394.63915249999997,395.09720443,396.6396073,396.63272190000004,396.63273569999996,397.7504028,397.7504028,398.46774910000005,lock,resources/stimuli/lock.wav,left,left,1,709.2258000000129,left,1,0.7092258000000129,None,,,,,,,,,,,,,,,,,,,,,,,,,,,,,,,,,,,,,,,,,,,,sub-001,001,2025-01-24_14h12.08.293,NESC3137_N400_exp,2023.2.3,146.1659217077025,2025-01-24 14h12.20.156201 -0400,
,,,,,,,,,67,0,67,0,,,,,,,,,,,,,398.47959740000005,,,,,,,,,,,,,,,398.469169,398.47959740000005,398.97528619999997,398.9752967,399.0075049,399.47527442999996,401.00762249999997,401.0015212,401.00153759999995,402.1215622,402.1215622,402.6474324,spider,resources/stimuli/spider.wav,left,left,1,522.5328000000218,left,1,0.5225328000000218,None,,,,,,,,,,,,,,,,,,,,,,,,,,,,,,,,,,,,,,,,,,,,sub-001,001,2025-01-24_14h12.08.293,NESC3137_N400_exp,2023.2.3,146.1659217077025,2025-01-24 14h12.20.156201 -0400,
,,,,,,,,,68,0,68,0,,,,,,,,,,,,,402.6538995,,,,,,,,,,,,,,,402.6492186,402.6538995,403.14846530000005,403.1484793,403.18183589999995,403.65052263,405.1825333,405.17536490000003,405.1753762,406.30201129999995,406.30201129999995,406.73907620000006,television,resources/stimuli/television.wav,left,left,1,422.732099999962,left,1,0.422732099999962,None,,,,,,,,,,,,,,,,,,,,,,,,,,,,,,,,,,,,,,,,,,,,sub-001,001,2025-01-24_14h12.08.293,NESC3137_N400_exp,2023.2.3,146.1659217077025,2025-01-24 14h12.20.156201 -0400,
,,,,,,,,,69,0,69,0,,,,,,,,,,,,,406.75216919999997,,,,,,,,,,,,,,,406.74043580000006,406.75216919999997,407.2454806,407.24549210000004,407.2885174,407.74532723,409.2939617,409.28764800000005,409.28766079999997,410.40718009999995,410.40718009999995,411.00366690000004,paintbrush,resources/stimuli/paintbrush.wav,left,left,1,589.3330999999762,left,1,0.5893330999999762,None,,,,,,,,,,,,,,,,,,,,,,,,,,,,,,,,,,,,,,,,,,,,sub-001,001,2025-01-24_14h12.08.293,NESC3137_N400_exp,2023.2.3,146.1659217077025,2025-01-24 14h12.20.156201 -0400,
,,,,,,,,,70,0,70,0,,,,,,,,,,,,,411.01607829999995,,,,,,,,,,,,,,,411.0052099,411.01607829999995,411.5189578,411.5189691,411.55781670000005,412.00367533,413.55876370000004,413.5532341,413.5532474,414.65581860000003,414.65581860000003,415.2744489,balloon,resources/stimuli/balloon_foil.wav,right,right,1,612.481700000103,right,1,0.612481700000103,None,,,,,,,,,,,,,,,,,,,,,,,,,,,,,,,,,,,,,,,,,,,,sub-001,001,2025-01-24_14h12.08.293,NESC3137_N400_exp,2023.2.3,146.1659217077025,2025-01-24 14h12.20.156201 -0400,
,,,,,,,,,71,0,71,0,,,,,,,,,,,,,415.2879833,,,,,,,,,,,,,,,415.2758418,415.2879833,415.7808471,415.78085890000006,415.8154391,416.28131522999996,417.8157378,417.80948099999995,417.8094925,418.92708039999997,418.92708039999997,420.1299492,pitcher,resources/stimuli/pitcher.wav,left,left,1,1197.7107999999816,left,1,1.1977107999999816,None,,,,,,,,,,,,,,,,,,,,,,,,,,,,,,,,,,,,,,,,,,,,sub-001,001,2025-01-24_14h12.08.293,NESC3137_N400_exp,2023.2.3,146.1659217077025,2025-01-24 14h12.20.156201 -0400,
,,,,,,,,,72,0,72,0,,,,,,,,,,,,,420.14334979999995,,,,,,,,,,,,,,,420.13153389999997,420.14334979999995,420.64262579999996,420.642637,420.6716177,421.13060363000005,422.6782831,422.66571949999997,422.66573439999996,423.79794940000005,423.79794940000005,424.45721999999995,rooster,resources/stimuli/rooster.wav,left,left,1,647.2954999999274,left,1,0.6472954999999274,None,,,,,,,,,,,,,,,,,,,,,,,,,,,,,,,,,,,,,,,,,,,,sub-001,001,2025-01-24_14h12.08.293,NESC3137_N400_exp,2023.2.3,146.1659217077025,2025-01-24 14h12.20.156201 -0400,
,,,,,,,,,73,0,73,0,,,,,,,,,,,,,424.46974400000005,,,,,,,,,,,,,,,424.45881620000006,424.46974400000005,424.962703,424.96272000000005,424.99738140000005,425.46298913000004,426.99766489999996,426.9917383,426.9917645,428.10962980000005,428.10962980000005,428.93680839999996,owl,resources/stimuli/owl_foil.wav,right,right,1,823.5402999999906,right,1,0.8235402999999906,None,,,,,,,,,,,,,,,,,,,,,,,,,,,,,,,,,,,,,,,,,,,,sub-001,001,2025-01-24_14h12.08.293,NESC3137_N400_exp,2023.2.3,146.1659217077025,2025-01-24 14h12.20.156201 -0400,
,,,,,,,,,74,0,74,0,,,,,,,,,,,,,428.9497495,,,,,,,,,,,,,,,428.93819479999996,428.9497495,429.443656,429.44367029999995,429.4872506,429.93713293,431.49207700000005,431.48491029999997,431.48492170000003,432.58887510000005,432.58887510000005,433.14621230000006,jacket,resources/stimuli/jacket_foil.wav,right,right,1,551.7619999999397,right,1,0.5517619999999397,None,,,,,,,,,,,,,,,,,,,,,,,,,,,,,,,,,,,,,,,,,,,,sub-001,001,2025-01-24_14h12.08.293,NESC3137_N400_exp,2023.2.3,146.1659217077025,2025-01-24 14h12.20.156201 -0400,
,,,,,,,,,75,0,75,0,,,,,,,,,,,,,433.1587705,,,,,,,,,,,,,,,433.1476637,433.1587705,433.65190149999995,433.65191280000005,433.69338180000005,434.15389482999996,435.69357399999996,435.6878814,435.68789250000003,436.81250670000003,436.81250670000003,438.2785316,moon,resources/stimuli/moon_foil.wav,right,right,1,1464.808699999935,right,1,1.464808699999935,None,,,,,,,,,,,,,,,,,,,,,,,,,,,,,,,,,,,,,,,,,,,,sub-001,001,2025-01-24_14h12.08.293,NESC3137_N400_exp,2023.2.3,146.1659217077025,2025-01-24 14h12.20.156201 -0400,
,,,,,,,,,76,0,76,0,,,,,,,,,,,,,438.2914437,,,,,,,,,,,,,,,438.2800401,438.2914437,438.7847155,438.7847265,438.81916440000003,439.28079293,440.81957789999996,440.81286670000003,440.8128783,441.9309745,441.9309745,442.88973619999996,seal,resources/stimuli/seal_foil.wav,right,right,1,954.2279999999437,right,1,0.9542279999999437,None,,,,,,,,,,,,,,,,,,,,,,,,,,,,,,,,,,,,,,,,,,,,sub-001,001,2025-01-24_14h12.08.293,NESC3137_N400_exp,2023.2.3,146.1659217077025,2025-01-24 14h12.20.156201 -0400,
,,,,,,,,,77,0,77,0,,,,,,,,,,,,,442.89614150000006,,,,,,,,,,,,,,,442.89105350000006,442.89614150000006,443.3900167,443.3900295,443.4295073,443.89094302999996,445.4314684,445.4247999,445.4248223,446.55696630000006,446.55696630000006,447.6889732,pear,resources/stimuli/pear.wav,left,left,1,1128.767899999957,left,1,1.128767899999957,None,443.4295073,,,,,,,,,,,,,,,,,,,,,,,,,,,,,,,,,,,,,,,,,,,sub-001,001,2025-01-24_14h12.08.293,NESC3137_N400_exp,2023.2.3,146.1659217077025,2025-01-24 14h12.20.156201 -0400,
,,,,,,,,,78,0,78,0,,,,,,,,,,,,,447.6956703,,,,,,,,,,,,,,,447.6903573,447.6956703,448.18911169999996,448.1891248,448.22440980000005,448.69567952999995,450.22531039999996,450.217063,450.21707999999995,451.3419171,451.3419171,451.82978799999995,deer,resources/stimuli/deer_foil.wav,right,right,1,479.9446000000671,right,1,0.4799446000000671,None,448.22440980000005,,,,,,,,,,,,,,,,,,,,,,,,,,,,,,,,,,,,,,,,,,,sub-001,001,2025-01-24_14h12.08.293,NESC3137_N400_exp,2023.2.3,146.1659217077025,2025-01-24 14h12.20.156201 -0400,
,,,,,,,,,79,0,79,0,,,,,,,,,,,,,451.84177989999995,,,,,,,,,,,,,,,451.83121669999997,451.84177989999995,452.3366735,452.33668689999996,452.36980420000003,452.83571823000005,454.37004399999995,454.36386469999997,454.3638792,455.48166899999995,455.48166899999995,456.0238053,cherry,resources/stimuli/cherry.wav,left,left,1,539.7630999999592,left,1,0.5397630999999592,None,,,,,,,,,,,,,,,,,,,,,,,,,,,,,,,,,,,,,,,,,,,,sub-001,001,2025-01-24_14h12.08.293,NESC3137_N400_exp,2023.2.3,146.1659217077025,2025-01-24 14h12.20.156201 -0400,
,,,,,,,,,80,0,80,0,,,,,,,,,,,,,456.0303059,,,,,,,,,,,,,,,456.0251504,456.0303059,456.5328123,456.5328242,456.5720564,457.03068363000006,458.57192979999996,458.56575690000005,458.56577,459.6838558,459.6838558,460.33906470000005,recordplayer,resources/stimuli/recordplayer_foil.wav,right,right,1,649.5289000000639,right,1,0.6495289000000639,None,,,,,,,,,,,,,,,,,,,,,,,,,,,,,,,,,,,,,,,,,,,,sub-001,001,2025-01-24_14h12.08.293,NESC3137_N400_exp,2023.2.3,146.1659217077025,2025-01-24 14h12.20.156201 -0400,
,,,,,,,,,81,0,81,0,,,,,,,,,,,,,460.35560560000005,,,,,,,,,,,,,,,460.3404992,460.35560560000005,460.8435543,460.8435678,460.8781048,461.34576493000003,462.87829689999995,462.872316,462.87233169999996,463.9897609,463.9897609,464.93696789999996,basket,resources/stimuli/basket.wav,left,left,1,943.9803000000211,left,1,0.9439803000000211,None,,,,,,,,,,,,,,,,,,,,,,,,,,,,,,,,,,,,,,,,,,,,sub-001,001,2025-01-24_14h12.08.293,NESC3137_N400_exp,2023.2.3,146.1659217077025,2025-01-24 14h12.20.156201 -0400,
,,,,,,,,,82,0,82,0,,,,,,,,,,,,,464.9480392,,,,,,,,,,,,,,,464.93838539999996,464.9480392,465.4414103,465.4414224,465.469173,465.94138313,467.4691187,467.4635251,467.4635434,468.5875547,468.5875547,468.963734,candle,resources/stimuli/candle_foil.wav,right,right,1,370.5374999999549,right,1,0.3705374999999549,None,,,,,,,,,,,,,,,,,,,,,,,,,,,,,,,,,,,,,,,,,,,,sub-001,001,2025-01-24_14h12.08.293,NESC3137_N400_exp,2023.2.3,146.1659217077025,2025-01-24 14h12.20.156201 -0400,
,,,,,,,,,83,0,83,0,,,,,,,,,,,,,468.97822,,,,,,,,,,,,,,,468.9651095,468.97822,469.4658219,469.46583730000003,469.51303939999997,469.97188293000005,471.5134486,471.50609519999995,471.50611,472.6172615,472.6172615,473.42266090000004,kite,resources/stimuli/kite_foil.wav,right,right,1,796.4024999999992,right,1,0.7964024999999992,None,,,,,,,,,,,,,,,,,,,,,,,,,,,,,,,,,,,,,,,,,,,,sub-001,001,2025-01-24_14h12.08.293,NESC3137_N400_exp,2023.2.3,146.1659217077025,2025-01-24 14h12.20.156201 -0400,
,,,,,,,,,84,0,84,0,,,,,,,,,,,,,473.43558520000005,,,,,,,,,,,,,,,473.42429009999995,473.43558520000005,473.92348769999995,473.923516,473.96693869999996,474.42541343,475.9708625,475.964036,475.96405239999996,477.08247620000003,477.08247620000003,477.66624600000006,penguin,resources/stimuli/penguin.wav,left,left,1,579.9485999999661,left,1,0.5799485999999661,None,,,,,,,,,,,,,,,,,,,,,,,,,,,,,,,,,,,,,,,,,,,,sub-001,001,2025-01-24_14h12.08.293,NESC3137_N400_exp,2023.2.3,146.1659217077025,2025-01-24 14h12.20.156201 -0400,
,,,,,,,,,85,0,85,0,,,,,,,,,,,,,477.67953259999996,,,,,,,,,,,,,,,477.6679197,477.67953259999996,478.17243149999996,478.17244420000003,478.20760709999996,478.67293513,480.2155786,480.20134909999996,480.2013669,481.31846790000003,481.31846790000003,482.355749,sun,resources/stimuli/sun_foil.wav,right,right,1,1032.0901999999705,right,1,1.0320901999999705,None,,,,,,,,,,,,,,,,,,,,,,,,,,,,,,,,,,,,,,,,,,,,sub-001,001,2025-01-24_14h12.08.293,NESC3137_N400_exp,2023.2.3,146.1659217077025,2025-01-24 14h12.20.156201 -0400,
