Word,setup_loop.thisRepN,setup_loop.thisTrialN,setup_loop.thisN,setup_loop.thisIndex,shuffle_loop.thisRepN,shuffle_loop.thisTrialN,shuffle_loop.thisN,shuffle_loop.thisIndex,trials.thisRepN,trials.thisTrialN,trials.thisN,trials.thisIndex,trialsBreak.thisRepN,trialsBreak.thisTrialN,trialsBreak.thisN,trialsBreak.thisIndex,trials_2.thisRepN,trials_2.thisTrialN,trials_2.thisN,trials_2.thisIndex,trialsBreak2.thisRepN,trialsBreak2.thisTrialN,trialsBreak2.thisN,trialsBreak2.thisIndex,thisRow.t,notes,LSL_Stream.started,LSL_Stream.stopped,setup.started,setup.stopped,shuffle_stimuli.started,shuffle_stimuli.stopped,Instructions1.started,imageInstruct1.started,key_resp_Instruct1.started,Instructions1.stopped,key_resp_Instruct1.keys,key_resp_Instruct1.rt,key_resp_Instruct1.duration,fixation.started,cross.started,cross.stopped,fixation.stopped,stimuli_prez_1.started,imagePrez1.started,audioPrez1.started,imagePrez1.stopped,stimuli_prez_1.stopped,response.started,image_resp_p1.started,p1_resp_stim.started,image_resp_p1.stopped,p1_resp_stim.stopped,textTimeOut.started,textTimeOut.stopped,response.stopped,Image,Audio,response_p1,corchoice_p1,Trial_Score_p1,Trial_RT_p1,p1_resp_stim.keys,p1_resp_stim.corr,p1_resp_stim.rt,p1_resp_stim.duration,checkpoint.started,imageBreak.started,imageCont.started,key_break.started,imageBreak.stopped,checkpoint.stopped,key_break.keys,key_break.rt,key_break.duration,Instructions2.started,imageInstruct1_2.started,key_resp_Instruct1_2.started,Instructions2.stopped,key_resp_Instruct1_2.keys,key_resp_Instruct1_2.rt,key_resp_Instruct1_2.duration,fixation_2.started,cross_2.started,cross_2.stopped,fixation_2.stopped,stimuli_prez_2.started,audioPrez2.started,imagePrez2.started,imagePrez2.stopped,stimuli_prez_2.stopped,response_2.started,image_resp_p2.started,p2_resp_stim.started,response_2.stopped,Image2,Audio2,response_p2,corchoice_p2,Trial_Score_p2,Trial_RT_p2,p2_resp_stim.keys,p2_resp_stim.corr,p2_resp_stim.rt,p2_resp_stim.duration,end.started,endscreen.started,key_resp_end.started,end.stopped,key_resp_end.keys,key_resp_end.rt,key_resp_end.duration,participant,session,date,expName,psychopyVersion,frameRate,expStart,
cat,0,0,0,28,,,,,,,,,,,,,,,,,,,,,0.2061295999997128,,0.09744649999993271,0.09799930000008317,0.13262219999978697,0.13298699999995733,,,,,,,,,,,,,,,,,,,,,,,,,,,,,,,,,,,,,,,,,,,,,,,,,,,,,,,,,,,,,,,,,,,,,,,,,,,,,,,,,,,sub-006,001,2025-01-24_14h38.00.100,NESC3137_N400_exp,2023.2.3,126.2779326790458,2025-01-24 14h38.27.266390 -0400,
ostrich,0,1,1,106,,,,,,,,,,,,,,,,,,,,,0.2061295999997128,,,,0.1331531000000723,0.1333316999998715,,,,,,,,,,,,,,,,,,,,,,,,,,,,,,,,,,,,,,,,,,,,,,,,,,,,,,,,,,,,,,,,,,,,,,,,,,,,,,,,,,,sub-006,001,2025-01-24_14h38.00.100,NESC3137_N400_exp,2023.2.3,126.2779326790458,2025-01-24 14h38.27.266390 -0400,
helicopter,0,2,2,76,,,,,,,,,,,,,,,,,,,,,0.2061295999997128,,,,0.13346039999987624,0.1336130999998204,,,,,,,,,,,,,,,,,,,,,,,,,,,,,,,,,,,,,,,,,,,,,,,,,,,,,,,,,,,,,,,,,,,,,,,,,,,,,,,,,,,sub-006,001,2025-01-24_14h38.00.100,NESC3137_N400_exp,2023.2.3,126.2779326790458,2025-01-24 14h38.27.266390 -0400,
anchor,0,3,3,3,,,,,,,,,,,,,,,,,,,,,0.2061295999997128,,,,0.13373479999972915,0.13391959999989922,,,,,,,,,,,,,,,,,,,,,,,,,,,,,,,,,,,,,,,,,,,,,,,,,,,,,,,,,,,,,,,,,,,,,,,,,,,,,,,,,,,sub-006,001,2025-01-24_14h38.00.100,NESC3137_N400_exp,2023.2.3,126.2779326790458,2025-01-24 14h38.27.266390 -0400,
well,0,4,4,172,,,,,,,,,,,,,,,,,,,,,0.2061295999997128,,,,0.1340820000000349,0.13427309999997306,,,,,,,,,,,,,,,,,,,,,,,,,,,,,,,,,,,,,,,,,,,,,,,,,,,,,,,,,,,,,,,,,,,,,,,,,,,,,,,,,,,sub-006,001,2025-01-24_14h38.00.100,NESC3137_N400_exp,2023.2.3,126.2779326790458,2025-01-24 14h38.27.266390 -0400,
windmill,0,5,5,175,,,,,,,,,,,,,,,,,,,,,0.2061295999997128,,,,0.13441830000010668,0.1345808000000943,,,,,,,,,,,,,,,,,,,,,,,,,,,,,,,,,,,,,,,,,,,,,,,,,,,,,,,,,,,,,,,,,,,,,,,,,,,,,,,,,,,sub-006,001,2025-01-24_14h38.00.100,NESC3137_N400_exp,2023.2.3,126.2779326790458,2025-01-24 14h38.27.266390 -0400,
monkey,0,6,6,98,,,,,,,,,,,,,,,,,,,,,0.2061295999997128,,,,0.13473290000001725,0.13487979999990785,,,,,,,,,,,,,,,,,,,,,,,,,,,,,,,,,,,,,,,,,,,,,,,,,,,,,,,,,,,,,,,,,,,,,,,,,,,,,,,,,,,sub-006,001,2025-01-24_14h38.00.100,NESC3137_N400_exp,2023.2.3,126.2779326790458,2025-01-24 14h38.27.266390 -0400,
gorilla,0,7,7,65,,,,,,,,,,,,,,,,,,,,,0.2061295999997128,,,,0.1349993999997423,0.13521339999988413,,,,,,,,,,,,,,,,,,,,,,,,,,,,,,,,,,,,,,,,,,,,,,,,,,,,,,,,,,,,,,,,,,,,,,,,,,,,,,,,,,,sub-006,001,2025-01-24_14h38.00.100,NESC3137_N400_exp,2023.2.3,126.2779326790458,2025-01-24 14h38.27.266390 -0400,
necklace,0,8,8,103,,,,,,,,,,,,,,,,,,,,,0.2061295999997128,,,,0.1354139000000032,0.13563269999986005,,,,,,,,,,,,,,,,,,,,,,,,,,,,,,,,,,,,,,,,,,,,,,,,,,,,,,,,,,,,,,,,,,,,,,,,,,,,,,,,,,,sub-006,001,2025-01-24_14h38.00.100,NESC3137_N400_exp,2023.2.3,126.2779326790458,2025-01-24 14h38.27.266390 -0400,
vest,0,9,9,168,,,,,,,,,,,,,,,,,,,,,0.2061295999997128,,,,0.13577780000014172,0.13595399999985602,,,,,,,,,,,,,,,,,,,,,,,,,,,,,,,,,,,,,,,,,,,,,,,,,,,,,,,,,,,,,,,,,,,,,,,,,,,,,,,,,,,sub-006,001,2025-01-24_14h38.00.100,NESC3137_N400_exp,2023.2.3,126.2779326790458,2025-01-24 14h38.27.266390 -0400,
sheep,0,10,10,139,,,,,,,,,,,,,,,,,,,,,0.2061295999997128,,,,0.1361194000000978,0.1366293000000951,,,,,,,,,,,,,,,,,,,,,,,,,,,,,,,,,,,,,,,,,,,,,,,,,,,,,,,,,,,,,,,,,,,,,,,,,,,,,,,,,,,sub-006,001,2025-01-24_14h38.00.100,NESC3137_N400_exp,2023.2.3,126.2779326790458,2025-01-24 14h38.27.266390 -0400,
pot,0,11,11,123,,,,,,,,,,,,,,,,,,,,,0.2061295999997128,,,,0.13683159999982308,0.13704139999981635,,,,,,,,,,,,,,,,,,,,,,,,,,,,,,,,,,,,,,,,,,,,,,,,,,,,,,,,,,,,,,,,,,,,,,,,,,,,,,,,,,,sub-006,001,2025-01-24_14h38.00.100,NESC3137_N400_exp,2023.2.3,126.2779326790458,2025-01-24 14h38.27.266390 -0400,
jacket,0,12,12,79,,,,,,,,,,,,,,,,,,,,,0.2061295999997128,,,,0.13719270000001416,0.1374070000001666,,,,,,,,,,,,,,,,,,,,,,,,,,,,,,,,,,,,,,,,,,,,,,,,,,,,,,,,,,,,,,,,,,,,,,,,,,,,,,,,,,,sub-006,001,2025-01-24_14h38.00.100,NESC3137_N400_exp,2023.2.3,126.2779326790458,2025-01-24 14h38.27.266390 -0400,
pants,0,13,13,109,,,,,,,,,,,,,,,,,,,,,0.2061295999997128,,,,0.13758950000010373,0.13783639999974184,,,,,,,,,,,,,,,,,,,,,,,,,,,,,,,,,,,,,,,,,,,,,,,,,,,,,,,,,,,,,,,,,,,,,,,,,,,,,,,,,,,sub-006,001,2025-01-24_14h38.00.100,NESC3137_N400_exp,2023.2.3,126.2779326790458,2025-01-24 14h38.27.266390 -0400,
strawberry,0,14,14,150,,,,,,,,,,,,,,,,,,,,,0.2061295999997128,,,,0.1380791000001409,0.1382899999998699,,,,,,,,,,,,,,,,,,,,,,,,,,,,,,,,,,,,,,,,,,,,,,,,,,,,,,,,,,,,,,,,,,,,,,,,,,,,,,,,,,,sub-006,001,2025-01-24_14h38.00.100,NESC3137_N400_exp,2023.2.3,126.2779326790458,2025-01-24 14h38.27.266390 -0400,
owl,0,15,15,107,,,,,,,,,,,,,,,,,,,,,0.2061295999997128,,,,0.13849299999992581,0.13868169999977908,,,,,,,,,,,,,,,,,,,,,,,,,,,,,,,,,,,,,,,,,,,,,,,,,,,,,,,,,,,,,,,,,,,,,,,,,,,,,,,,,,,sub-006,001,2025-01-24_14h38.00.100,NESC3137_N400_exp,2023.2.3,126.2779326790458,2025-01-24 14h38.27.266390 -0400,
candle,0,16,16,25,,,,,,,,,,,,,,,,,,,,,0.2061295999997128,,,,0.1388241999998172,0.13898650000010093,,,,,,,,,,,,,,,,,,,,,,,,,,,,,,,,,,,,,,,,,,,,,,,,,,,,,,,,,,,,,,,,,,,,,,,,,,,,,,,,,,,sub-006,001,2025-01-24_14h38.00.100,NESC3137_N400_exp,2023.2.3,126.2779326790458,2025-01-24 14h38.27.266390 -0400,
seal,0,17,17,138,,,,,,,,,,,,,,,,,,,,,0.2061295999997128,,,,0.13913000000002285,0.13931069999989631,,,,,,,,,,,,,,,,,,,,,,,,,,,,,,,,,,,,,,,,,,,,,,,,,,,,,,,,,,,,,,,,,,,,,,,,,,,,,,,,,,,sub-006,001,2025-01-24_14h38.00.100,NESC3137_N400_exp,2023.2.3,126.2779326790458,2025-01-24 14h38.27.266390 -0400,
skirt,0,18,18,141,,,,,,,,,,,,,,,,,,,,,0.2061295999997128,,,,0.13943479999988995,0.13957070000014937,,,,,,,,,,,,,,,,,,,,,,,,,,,,,,,,,,,,,,,,,,,,,,,,,,,,,,,,,,,,,,,,,,,,,,,,,,,,,,,,,,,sub-006,001,2025-01-24_14h38.00.100,NESC3137_N400_exp,2023.2.3,126.2779326790458,2025-01-24 14h38.27.266390 -0400,
tree,0,19,19,163,,,,,,,,,,,,,,,,,,,,,0.2061295999997128,,,,0.13968979999981457,0.13982050000004165,,,,,,,,,,,,,,,,,,,,,,,,,,,,,,,,,,,,,,,,,,,,,,,,,,,,,,,,,,,,,,,,,,,,,,,,,,,,,,,,,,,sub-006,001,2025-01-24_14h38.00.100,NESC3137_N400_exp,2023.2.3,126.2779326790458,2025-01-24 14h38.27.266390 -0400,
harp,0,20,20,73,,,,,,,,,,,,,,,,,,,,,0.2061295999997128,,,,0.13993369999980132,0.1400936999998521,,,,,,,,,,,,,,,,,,,,,,,,,,,,,,,,,,,,,,,,,,,,,,,,,,,,,,,,,,,,,,,,,,,,,,,,,,,,,,,,,,,sub-006,001,2025-01-24_14h38.00.100,NESC3137_N400_exp,2023.2.3,126.2779326790458,2025-01-24 14h38.27.266390 -0400,
penguin,0,21,21,116,,,,,,,,,,,,,,,,,,,,,0.2061295999997128,,,,0.14021589999993012,0.14035389999980907,,,,,,,,,,,,,,,,,,,,,,,,,,,,,,,,,,,,,,,,,,,,,,,,,,,,,,,,,,,,,,,,,,,,,,,,,,,,,,,,,,,sub-006,001,2025-01-24_14h38.00.100,NESC3137_N400_exp,2023.2.3,126.2779326790458,2025-01-24 14h38.27.266390 -0400,
seahorse,0,22,22,137,,,,,,,,,,,,,,,,,,,,,0.2061295999997128,,,,0.14046419999976933,0.1406090000000404,,,,,,,,,,,,,,,,,,,,,,,,,,,,,,,,,,,,,,,,,,,,,,,,,,,,,,,,,,,,,,,,,,,,,,,,,,,,,,,,,,,sub-006,001,2025-01-24_14h38.00.100,NESC3137_N400_exp,2023.2.3,126.2779326790458,2025-01-24 14h38.27.266390 -0400,
trafficlight,0,23,23,162,,,,,,,,,,,,,,,,,,,,,0.2061295999997128,,,,0.14077499999984866,0.14093820000016422,,,,,,,,,,,,,,,,,,,,,,,,,,,,,,,,,,,,,,,,,,,,,,,,,,,,,,,,,,,,,,,,,,,,,,,,,,,,,,,,,,,sub-006,001,2025-01-24_14h38.00.100,NESC3137_N400_exp,2023.2.3,126.2779326790458,2025-01-24 14h38.27.266390 -0400,
whistle,0,24,24,174,,,,,,,,,,,,,,,,,,,,,0.2061295999997128,,,,0.14107220000005327,0.14121879999993325,,,,,,,,,,,,,,,,,,,,,,,,,,,,,,,,,,,,,,,,,,,,,,,,,,,,,,,,,,,,,,,,,,,,,,,,,,,,,,,,,,,sub-006,001,2025-01-24_14h38.00.100,NESC3137_N400_exp,2023.2.3,126.2779326790458,2025-01-24 14h38.27.266390 -0400,
salt,0,25,25,133,,,,,,,,,,,,,,,,,,,,,0.2061295999997128,,,,0.1413422000000537,0.1414906999998493,,,,,,,,,,,,,,,,,,,,,,,,,,,,,,,,,,,,,,,,,,,,,,,,,,,,,,,,,,,,,,,,,,,,,,,,,,,,,,,,,,,sub-006,001,2025-01-24_14h38.00.100,NESC3137_N400_exp,2023.2.3,126.2779326790458,2025-01-24 14h38.27.266390 -0400,
flower,0,26,26,56,,,,,,,,,,,,,,,,,,,,,0.2061295999997128,,,,0.14161160000003292,0.1417450999997527,,,,,,,,,,,,,,,,,,,,,,,,,,,,,,,,,,,,,,,,,,,,,,,,,,,,,,,,,,,,,,,,,,,,,,,,,,,,,,,,,,,sub-006,001,2025-01-24_14h38.00.100,NESC3137_N400_exp,2023.2.3,126.2779326790458,2025-01-24 14h38.27.266390 -0400,
sled,0,27,27,143,,,,,,,,,,,,,,,,,,,,,0.2061295999997128,,,,0.14185889999998835,0.14198720000013054,,,,,,,,,,,,,,,,,,,,,,,,,,,,,,,,,,,,,,,,,,,,,,,,,,,,,,,,,,,,,,,,,,,,,,,,,,,,,,,,,,,sub-006,001,2025-01-24_14h38.00.100,NESC3137_N400_exp,2023.2.3,126.2779326790458,2025-01-24 14h38.27.266390 -0400,
chain,0,28,28,29,,,,,,,,,,,,,,,,,,,,,0.2061295999997128,,,,0.1420987999999852,0.14222549999976764,,,,,,,,,,,,,,,,,,,,,,,,,,,,,,,,,,,,,,,,,,,,,,,,,,,,,,,,,,,,,,,,,,,,,,,,,,,,,,,,,,,sub-006,001,2025-01-24_14h38.00.100,NESC3137_N400_exp,2023.2.3,126.2779326790458,2025-01-24 14h38.27.266390 -0400,
skunk,0,29,29,142,,,,,,,,,,,,,,,,,,,,,0.2061295999997128,,,,0.14233520000016142,0.1424630999999863,,,,,,,,,,,,,,,,,,,,,,,,,,,,,,,,,,,,,,,,,,,,,,,,,,,,,,,,,,,,,,,,,,,,,,,,,,,,,,,,,,,sub-006,001,2025-01-24_14h38.00.100,NESC3137_N400_exp,2023.2.3,126.2779326790458,2025-01-24 14h38.27.266390 -0400,
tomato,0,30,30,160,,,,,,,,,,,,,,,,,,,,,0.2061295999997128,,,,0.14257270000007338,0.1426992000001519,,,,,,,,,,,,,,,,,,,,,,,,,,,,,,,,,,,,,,,,,,,,,,,,,,,,,,,,,,,,,,,,,,,,,,,,,,,,,,,,,,,sub-006,001,2025-01-24_14h38.00.100,NESC3137_N400_exp,2023.2.3,126.2779326790458,2025-01-24 14h38.27.266390 -0400,
mushroom,0,31,31,101,,,,,,,,,,,,,,,,,,,,,0.2061295999997128,,,,0.14280819999976302,0.1429696000000149,,,,,,,,,,,,,,,,,,,,,,,,,,,,,,,,,,,,,,,,,,,,,,,,,,,,,,,,,,,,,,,,,,,,,,,,,,,,,,,,,,,sub-006,001,2025-01-24_14h38.00.100,NESC3137_N400_exp,2023.2.3,126.2779326790458,2025-01-24 14h38.27.266390 -0400,
recordplayer,0,32,32,127,,,,,,,,,,,,,,,,,,,,,0.2061295999997128,,,,0.14312710000012885,0.1433140999997704,,,,,,,,,,,,,,,,,,,,,,,,,,,,,,,,,,,,,,,,,,,,,,,,,,,,,,,,,,,,,,,,,,,,,,,,,,,,,,,,,,,sub-006,001,2025-01-24_14h38.00.100,NESC3137_N400_exp,2023.2.3,126.2779326790458,2025-01-24 14h38.27.266390 -0400,
watermelon,0,33,33,171,,,,,,,,,,,,,,,,,,,,,0.2061295999997128,,,,0.1434371000000283,0.14358450000008816,,,,,,,,,,,,,,,,,,,,,,,,,,,,,,,,,,,,,,,,,,,,,,,,,,,,,,,,,,,,,,,,,,,,,,,,,,,,,,,,,,,sub-006,001,2025-01-24_14h38.00.100,NESC3137_N400_exp,2023.2.3,126.2779326790458,2025-01-24 14h38.27.266390 -0400,
lemon,0,34,34,89,,,,,,,,,,,,,,,,,,,,,0.2061295999997128,,,,0.143696799999816,0.14385769999989861,,,,,,,,,,,,,,,,,,,,,,,,,,,,,,,,,,,,,,,,,,,,,,,,,,,,,,,,,,,,,,,,,,,,,,,,,,,,,,,,,,,sub-006,001,2025-01-24_14h38.00.100,NESC3137_N400_exp,2023.2.3,126.2779326790458,2025-01-24 14h38.27.266390 -0400,
spider,0,35,35,146,,,,,,,,,,,,,,,,,,,,,0.2061295999997128,,,,0.14398380000011457,0.14413299999978335,,,,,,,,,,,,,,,,,,,,,,,,,,,,,,,,,,,,,,,,,,,,,,,,,,,,,,,,,,,,,,,,,,,,,,,,,,,,,,,,,,,sub-006,001,2025-01-24_14h38.00.100,NESC3137_N400_exp,2023.2.3,126.2779326790458,2025-01-24 14h38.27.266390 -0400,
carrot,0,36,36,27,,,,,,,,,,,,,,,,,,,,,0.2061295999997128,,,,0.14424559999997655,0.14446159999988595,,,,,,,,,,,,,,,,,,,,,,,,,,,,,,,,,,,,,,,,,,,,,,,,,,,,,,,,,,,,,,,,,,,,,,,,,,,,,,,,,,,sub-006,001,2025-01-24_14h38.00.100,NESC3137_N400_exp,2023.2.3,126.2779326790458,2025-01-24 14h38.27.266390 -0400,
mountain,0,37,37,100,,,,,,,,,,,,,,,,,,,,,0.2061295999997128,,,,0.14458520000016506,0.14475529999981518,,,,,,,,,,,,,,,,,,,,,,,,,,,,,,,,,,,,,,,,,,,,,,,,,,,,,,,,,,,,,,,,,,,,,,,,,,,,,,,,,,,sub-006,001,2025-01-24_14h38.00.100,NESC3137_N400_exp,2023.2.3,126.2779326790458,2025-01-24 14h38.27.266390 -0400,
envelope,0,38,38,50,,,,,,,,,,,,,,,,,,,,,0.2061295999997128,,,,0.14488299999993615,0.14503749999994398,,,,,,,,,,,,,,,,,,,,,,,,,,,,,,,,,,,,,,,,,,,,,,,,,,,,,,,,,,,,,,,,,,,,,,,,,,,,,,,,,,,sub-006,001,2025-01-24_14h38.00.100,NESC3137_N400_exp,2023.2.3,126.2779326790458,2025-01-24 14h38.27.266390 -0400,
lips,0,39,39,94,,,,,,,,,,,,,,,,,,,,,0.2061295999997128,,,,0.14515320000009524,0.14531880000004094,,,,,,,,,,,,,,,,,,,,,,,,,,,,,,,,,,,,,,,,,,,,,,,,,,,,,,,,,,,,,,,,,,,,,,,,,,,,,,,,,,,sub-006,001,2025-01-24_14h38.00.100,NESC3137_N400_exp,2023.2.3,126.2779326790458,2025-01-24 14h38.27.266390 -0400,
tiger,0,40,40,159,,,,,,,,,,,,,,,,,,,,,0.2061295999997128,,,,0.14544230000001335,0.14559559999997873,,,,,,,,,,,,,,,,,,,,,,,,,,,,,,,,,,,,,,,,,,,,,,,,,,,,,,,,,,,,,,,,,,,,,,,,,,,,,,,,,,,sub-006,001,2025-01-24_14h38.00.100,NESC3137_N400_exp,2023.2.3,126.2779326790458,2025-01-24 14h38.27.266390 -0400,
wheel,0,41,41,173,,,,,,,,,,,,,,,,,,,,,0.2061295999997128,,,,0.14577479999979914,0.14593379999996614,,,,,,,,,,,,,,,,,,,,,,,,,,,,,,,,,,,,,,,,,,,,,,,,,,,,,,,,,,,,,,,,,,,,,,,,,,,,,,,,,,,sub-006,001,2025-01-24_14h38.00.100,NESC3137_N400_exp,2023.2.3,126.2779326790458,2025-01-24 14h38.27.266390 -0400,
bow,0,42,42,19,,,,,,,,,,,,,,,,,,,,,0.2061295999997128,,,,0.14605219999975816,0.14618380000001707,,,,,,,,,,,,,,,,,,,,,,,,,,,,,,,,,,,,,,,,,,,,,,,,,,,,,,,,,,,,,,,,,,,,,,,,,,,,,,,,,,,sub-006,001,2025-01-24_14h38.00.100,NESC3137_N400_exp,2023.2.3,126.2779326790458,2025-01-24 14h38.27.266390 -0400,
heart,0,43,43,75,,,,,,,,,,,,,,,,,,,,,0.2061295999997128,,,,0.14629680000007284,0.14643029999979262,,,,,,,,,,,,,,,,,,,,,,,,,,,,,,,,,,,,,,,,,,,,,,,,,,,,,,,,,,,,,,,,,,,,,,,,,,,,,,,,,,,sub-006,001,2025-01-24_14h38.00.100,NESC3137_N400_exp,2023.2.3,126.2779326790458,2025-01-24 14h38.27.266390 -0400,
swan,0,44,44,153,,,,,,,,,,,,,,,,,,,,,0.2061295999997128,,,,0.1465579999999136,0.14672749999999724,,,,,,,,,,,,,,,,,,,,,,,,,,,,,,,,,,,,,,,,,,,,,,,,,,,,,,,,,,,,,,,,,,,,,,,,,,,,,,,,,,,sub-006,001,2025-01-24_14h38.00.100,NESC3137_N400_exp,2023.2.3,126.2779326790458,2025-01-24 14h38.27.266390 -0400,
apple,0,45,45,4,,,,,,,,,,,,,,,,,,,,,0.2061295999997128,,,,0.1468540999999277,0.14700790000006236,,,,,,,,,,,,,,,,,,,,,,,,,,,,,,,,,,,,,,,,,,,,,,,,,,,,,,,,,,,,,,,,,,,,,,,,,,,,,,,,,,,sub-006,001,2025-01-24_14h38.00.100,NESC3137_N400_exp,2023.2.3,126.2779326790458,2025-01-24 14h38.27.266390 -0400,
basket,0,46,46,11,,,,,,,,,,,,,,,,,,,,,0.2061295999997128,,,,0.14712629999985438,0.147271499999988,,,,,,,,,,,,,,,,,,,,,,,,,,,,,,,,,,,,,,,,,,,,,,,,,,,,,,,,,,,,,,,,,,,,,,,,,,,,,,,,,,,sub-006,001,2025-01-24_14h38.00.100,NESC3137_N400_exp,2023.2.3,126.2779326790458,2025-01-24 14h38.27.266390 -0400,
peach,0,47,47,111,,,,,,,,,,,,,,,,,,,,,0.2061295999997128,,,,0.14738750000014988,0.14755699999977878,,,,,,,,,,,,,,,,,,,,,,,,,,,,,,,,,,,,,,,,,,,,,,,,,,,,,,,,,,,,,,,,,,,,,,,,,,,,,,,,,,,sub-006,001,2025-01-24_14h38.00.100,NESC3137_N400_exp,2023.2.3,126.2779326790458,2025-01-24 14h38.27.266390 -0400,
banana,0,48,48,9,,,,,,,,,,,,,,,,,,,,,0.2061295999997128,,,,0.1477426999999807,0.1479128999999375,,,,,,,,,,,,,,,,,,,,,,,,,,,,,,,,,,,,,,,,,,,,,,,,,,,,,,,,,,,,,,,,,,,,,,,,,,,,,,,,,,,sub-006,001,2025-01-24_14h38.00.100,NESC3137_N400_exp,2023.2.3,126.2779326790458,2025-01-24 14h38.27.266390 -0400,
table,0,49,49,155,,,,,,,,,,,,,,,,,,,,,0.2061295999997128,,,,0.14804099999992104,0.14817619999985254,,,,,,,,,,,,,,,,,,,,,,,,,,,,,,,,,,,,,,,,,,,,,,,,,,,,,,,,,,,,,,,,,,,,,,,,,,,,,,,,,,,sub-006,001,2025-01-24_14h38.00.100,NESC3137_N400_exp,2023.2.3,126.2779326790458,2025-01-24 14h38.27.266390 -0400,
gun,0,50,50,68,,,,,,,,,,,,,,,,,,,,,0.2061295999997128,,,,0.14829620000000432,0.14845759999980146,,,,,,,,,,,,,,,,,,,,,,,,,,,,,,,,,,,,,,,,,,,,,,,,,,,,,,,,,,,,,,,,,,,,,,,,,,,,,,,,,,,sub-006,001,2025-01-24_14h38.00.100,NESC3137_N400_exp,2023.2.3,126.2779326790458,2025-01-24 14h38.27.266390 -0400,
kangaroo,0,51,51,80,,,,,,,,,,,,,,,,,,,,,0.2061295999997128,,,,0.14858360000016546,0.1487409999999727,,,,,,,,,,,,,,,,,,,,,,,,,,,,,,,,,,,,,,,,,,,,,,,,,,,,,,,,,,,,,,,,,,,,,,,,,,,,,,,,,,,sub-006,001,2025-01-24_14h38.00.100,NESC3137_N400_exp,2023.2.3,126.2779326790458,2025-01-24 14h38.27.266390 -0400,
window,0,52,52,176,,,,,,,,,,,,,,,,,,,,,0.2061295999997128,,,,0.14892740000004778,0.1491188999998485,,,,,,,,,,,,,,,,,,,,,,,,,,,,,,,,,,,,,,,,,,,,,,,,,,,,,,,,,,,,,,,,,,,,,,,,,,,,,,,,,,,sub-006,001,2025-01-24_14h38.00.100,NESC3137_N400_exp,2023.2.3,126.2779326790458,2025-01-24 14h38.27.266390 -0400,
bread,0,53,53,20,,,,,,,,,,,,,,,,,,,,,0.2061295999997128,,,,0.14925869999979113,0.14954619999980423,,,,,,,,,,,,,,,,,,,,,,,,,,,,,,,,,,,,,,,,,,,,,,,,,,,,,,,,,,,,,,,,,,,,,,,,,,,,,,,,,,,sub-006,001,2025-01-24_14h38.00.100,NESC3137_N400_exp,2023.2.3,126.2779326790458,2025-01-24 14h38.27.266390 -0400,
star,0,54,54,148,,,,,,,,,,,,,,,,,,,,,0.2061295999997128,,,,0.14969209999981103,0.14985380000007353,,,,,,,,,,,,,,,,,,,,,,,,,,,,,,,,,,,,,,,,,,,,,,,,,,,,,,,,,,,,,,,,,,,,,,,,,,,,,,,,,,,sub-006,001,2025-01-24_14h38.00.100,NESC3137_N400_exp,2023.2.3,126.2779326790458,2025-01-24 14h38.27.266390 -0400,
drum,0,55,55,46,,,,,,,,,,,,,,,,,,,,,0.2061295999997128,,,,0.14998579999974027,0.15012799999976778,,,,,,,,,,,,,,,,,,,,,,,,,,,,,,,,,,,,,,,,,,,,,,,,,,,,,,,,,,,,,,,,,,,,,,,,,,,,,,,,,,,sub-006,001,2025-01-24_14h38.00.100,NESC3137_N400_exp,2023.2.3,126.2779326790458,2025-01-24 14h38.27.266390 -0400,
church,0,56,56,32,,,,,,,,,,,,,,,,,,,,,0.2061295999997128,,,,0.1502501999998458,0.1503923999998733,,,,,,,,,,,,,,,,,,,,,,,,,,,,,,,,,,,,,,,,,,,,,,,,,,,,,,,,,,,,,,,,,,,,,,,,,,,,,,,,,,,sub-006,001,2025-01-24_14h38.00.100,NESC3137_N400_exp,2023.2.3,126.2779326790458,2025-01-24 14h38.27.266390 -0400,
grapes,0,57,57,66,,,,,,,,,,,,,,,,,,,,,0.2061295999997128,,,,0.15050990000008824,0.15065270000013697,,,,,,,,,,,,,,,,,,,,,,,,,,,,,,,,,,,,,,,,,,,,,,,,,,,,,,,,,,,,,,,,,,,,,,,,,,,,,,,,,,,sub-006,001,2025-01-24_14h38.00.100,NESC3137_N400_exp,2023.2.3,126.2779326790458,2025-01-24 14h38.27.266390 -0400,
cow,0,58,58,38,,,,,,,,,,,,,,,,,,,,,0.2061295999997128,,,,0.15079470000000583,0.15095919999976104,,,,,,,,,,,,,,,,,,,,,,,,,,,,,,,,,,,,,,,,,,,,,,,,,,,,,,,,,,,,,,,,,,,,,,,,,,,,,,,,,,,sub-006,001,2025-01-24_14h38.00.100,NESC3137_N400_exp,2023.2.3,126.2779326790458,2025-01-24 14h38.27.266390 -0400,
chair,0,59,59,30,,,,,,,,,,,,,,,,,,,,,0.2061295999997128,,,,0.1511184000000867,0.15127529999972467,,,,,,,,,,,,,,,,,,,,,,,,,,,,,,,,,,,,,,,,,,,,,,,,,,,,,,,,,,,,,,,,,,,,,,,,,,,,,,,,,,,sub-006,001,2025-01-24_14h38.00.100,NESC3137_N400_exp,2023.2.3,126.2779326790458,2025-01-24 14h38.27.266390 -0400,
plug,0,60,60,122,,,,,,,,,,,,,,,,,,,,,0.2061295999997128,,,,0.15142809999997553,0.15164150000009613,,,,,,,,,,,,,,,,,,,,,,,,,,,,,,,,,,,,,,,,,,,,,,,,,,,,,,,,,,,,,,,,,,,,,,,,,,,,,,,,,,,sub-006,001,2025-01-24_14h38.00.100,NESC3137_N400_exp,2023.2.3,126.2779326790458,2025-01-24 14h38.27.266390 -0400,
ladder,0,61,61,85,,,,,,,,,,,,,,,,,,,,,0.2061295999997128,,,,0.15179399999988163,0.15193749999980355,,,,,,,,,,,,,,,,,,,,,,,,,,,,,,,,,,,,,,,,,,,,,,,,,,,,,,,,,,,,,,,,,,,,,,,,,,,,,,,,,,,sub-006,001,2025-01-24_14h38.00.100,NESC3137_N400_exp,2023.2.3,126.2779326790458,2025-01-24 14h38.27.266390 -0400,
umbrella,0,62,62,166,,,,,,,,,,,,,,,,,,,,,0.2061295999997128,,,,0.15205409999998665,0.1522082000001319,,,,,,,,,,,,,,,,,,,,,,,,,,,,,,,,,,,,,,,,,,,,,,,,,,,,,,,,,,,,,,,,,,,,,,,,,,,,,,,,,,,sub-006,001,2025-01-24_14h38.00.100,NESC3137_N400_exp,2023.2.3,126.2779326790458,2025-01-24 14h38.27.266390 -0400,
desk,0,63,63,41,,,,,,,,,,,,,,,,,,,,,0.2061295999997128,,,,0.1523656999997911,0.15271189999975832,,,,,,,,,,,,,,,,,,,,,,,,,,,,,,,,,,,,,,,,,,,,,,,,,,,,,,,,,,,,,,,,,,,,,,,,,,,,,,,,,,,sub-006,001,2025-01-24_14h38.00.100,NESC3137_N400_exp,2023.2.3,126.2779326790458,2025-01-24 14h38.27.266390 -0400,
boot,0,64,64,18,,,,,,,,,,,,,,,,,,,,,0.2061295999997128,,,,0.1528454999997848,0.1530081999999311,,,,,,,,,,,,,,,,,,,,,,,,,,,,,,,,,,,,,,,,,,,,,,,,,,,,,,,,,,,,,,,,,,,,,,,,,,,,,,,,,,,sub-006,001,2025-01-24_14h38.00.100,NESC3137_N400_exp,2023.2.3,126.2779326790458,2025-01-24 14h38.27.266390 -0400,
rollingpin,0,65,65,130,,,,,,,,,,,,,,,,,,,,,0.2061295999997128,,,,0.153132800000094,0.1533703999998579,,,,,,,,,,,,,,,,,,,,,,,,,,,,,,,,,,,,,,,,,,,,,,,,,,,,,,,,,,,,,,,,,,,,,,,,,,,,,,,,,,,sub-006,001,2025-01-24_14h38.00.100,NESC3137_N400_exp,2023.2.3,126.2779326790458,2025-01-24 14h38.27.266390 -0400,
snail,0,66,66,144,,,,,,,,,,,,,,,,,,,,,0.2061295999997128,,,,0.15354359999992084,0.15372149999984686,,,,,,,,,,,,,,,,,,,,,,,,,,,,,,,,,,,,,,,,,,,,,,,,,,,,,,,,,,,,,,,,,,,,,,,,,,,,,,,,,,,sub-006,001,2025-01-24_14h38.00.100,NESC3137_N400_exp,2023.2.3,126.2779326790458,2025-01-24 14h38.27.266390 -0400,
butterfly,0,67,67,21,,,,,,,,,,,,,,,,,,,,,0.2061295999997128,,,,0.15394579999974667,0.15415429999984553,,,,,,,,,,,,,,,,,,,,,,,,,,,,,,,,,,,,,,,,,,,,,,,,,,,,,,,,,,,,,,,,,,,,,,,,,,,,,,,,,,,sub-006,001,2025-01-24_14h38.00.100,NESC3137_N400_exp,2023.2.3,126.2779326790458,2025-01-24 14h38.27.266390 -0400,
corn,0,68,68,37,,,,,,,,,,,,,,,,,,,,,0.2061295999997128,,,,0.1542872999998508,0.15446549999978743,,,,,,,,,,,,,,,,,,,,,,,,,,,,,,,,,,,,,,,,,,,,,,,,,,,,,,,,,,,,,,,,,,,,,,,,,,,,,,,,,,,sub-006,001,2025-01-24_14h38.00.100,NESC3137_N400_exp,2023.2.3,126.2779326790458,2025-01-24 14h38.27.266390 -0400,
cannon,0,69,69,26,,,,,,,,,,,,,,,,,,,,,0.2061295999997128,,,,0.15464059999976598,0.15485050000006595,,,,,,,,,,,,,,,,,,,,,,,,,,,,,,,,,,,,,,,,,,,,,,,,,,,,,,,,,,,,,,,,,,,,,,,,,,,,,,,,,,,sub-006,001,2025-01-24_14h38.00.100,NESC3137_N400_exp,2023.2.3,126.2779326790458,2025-01-24 14h38.27.266390 -0400,
ring,0,70,70,129,,,,,,,,,,,,,,,,,,,,,0.2061295999997128,,,,0.15503039999975954,0.15521269999999276,,,,,,,,,,,,,,,,,,,,,,,,,,,,,,,,,,,,,,,,,,,,,,,,,,,,,,,,,,,,,,,,,,,,,,,,,,,,,,,,,,,sub-006,001,2025-01-24_14h38.00.100,NESC3137_N400_exp,2023.2.3,126.2779326790458,2025-01-24 14h38.27.266390 -0400,
cloud,0,71,71,35,,,,,,,,,,,,,,,,,,,,,0.2061295999997128,,,,0.1553897999997389,0.15557369999987714,,,,,,,,,,,,,,,,,,,,,,,,,,,,,,,,,,,,,,,,,,,,,,,,,,,,,,,,,,,,,,,,,,,,,,,,,,,,,,,,,,,sub-006,001,2025-01-24_14h38.00.100,NESC3137_N400_exp,2023.2.3,126.2779326790458,2025-01-24 14h38.27.266390 -0400,
onion,0,72,72,104,,,,,,,,,,,,,,,,,,,,,0.2061295999997128,,,,0.15574719999995068,0.1559065000001283,,,,,,,,,,,,,,,,,,,,,,,,,,,,,,,,,,,,,,,,,,,,,,,,,,,,,,,,,,,,,,,,,,,,,,,,,,,,,,,,,,,sub-006,001,2025-01-24_14h38.00.100,NESC3137_N400_exp,2023.2.3,126.2779326790458,2025-01-24 14h38.27.266390 -0400,
doorknob,0,73,73,44,,,,,,,,,,,,,,,,,,,,,0.2061295999997128,,,,0.15604140000004918,0.1561797999997907,,,,,,,,,,,,,,,,,,,,,,,,,,,,,,,,,,,,,,,,,,,,,,,,,,,,,,,,,,,,,,,,,,,,,,,,,,,,,,,,,,,sub-006,001,2025-01-24_14h38.00.100,NESC3137_N400_exp,2023.2.3,126.2779326790458,2025-01-24 14h38.27.266390 -0400,
truck,0,74,74,164,,,,,,,,,,,,,,,,,,,,,0.2061295999997128,,,,0.15630250000003798,0.1564371999998002,,,,,,,,,,,,,,,,,,,,,,,,,,,,,,,,,,,,,,,,,,,,,,,,,,,,,,,,,,,,,,,,,,,,,,,,,,,,,,,,,,,sub-006,001,2025-01-24_14h38.00.100,NESC3137_N400_exp,2023.2.3,126.2779326790458,2025-01-24 14h38.27.266390 -0400,
airplane,0,75,75,1,,,,,,,,,,,,,,,,,,,,,0.2061295999997128,,,,0.1565557999997509,0.15674880000005942,,,,,,,,,,,,,,,,,,,,,,,,,,,,,,,,,,,,,,,,,,,,,,,,,,,,,,,,,,,,,,,,,,,,,,,,,,,,,,,,,,,sub-006,001,2025-01-24_14h38.00.100,NESC3137_N400_exp,2023.2.3,126.2779326790458,2025-01-24 14h38.27.266390 -0400,
bicycle,0,76,76,16,,,,,,,,,,,,,,,,,,,,,0.2061295999997128,,,,0.15687049999996816,0.15706180000006498,,,,,,,,,,,,,,,,,,,,,,,,,,,,,,,,,,,,,,,,,,,,,,,,,,,,,,,,,,,,,,,,,,,,,,,,,,,,,,,,,,,sub-006,001,2025-01-24_14h38.00.100,NESC3137_N400_exp,2023.2.3,126.2779326790458,2025-01-24 14h38.27.266390 -0400,
hair,0,77,77,69,,,,,,,,,,,,,,,,,,,,,0.2061295999997128,,,,0.15724120000004405,0.15743919999977152,,,,,,,,,,,,,,,,,,,,,,,,,,,,,,,,,,,,,,,,,,,,,,,,,,,,,,,,,,,,,,,,,,,,,,,,,,,,,,,,,,,sub-006,001,2025-01-24_14h38.00.100,NESC3137_N400_exp,2023.2.3,126.2779326790458,2025-01-24 14h38.27.266390 -0400,
doll,0,78,78,43,,,,,,,,,,,,,,,,,,,,,0.2061295999997128,,,,0.15760379999983343,0.15780629999972007,,,,,,,,,,,,,,,,,,,,,,,,,,,,,,,,,,,,,,,,,,,,,,,,,,,,,,,,,,,,,,,,,,,,,,,,,,,,,,,,,,,sub-006,001,2025-01-24_14h38.00.100,NESC3137_N400_exp,2023.2.3,126.2779326790458,2025-01-24 14h38.27.266390 -0400,
eye,0,79,79,51,,,,,,,,,,,,,,,,,,,,,0.2061295999997128,,,,0.15801179999971282,0.15820469999971465,,,,,,,,,,,,,,,,,,,,,,,,,,,,,,,,,,,,,,,,,,,,,,,,,,,,,,,,,,,,,,,,,,,,,,,,,,,,,,,,,,,sub-006,001,2025-01-24_14h38.00.100,NESC3137_N400_exp,2023.2.3,126.2779326790458,2025-01-24 14h38.27.266390 -0400,
turtle,0,80,80,165,,,,,,,,,,,,,,,,,,,,,0.2061295999997128,,,,0.158408899999813,0.15861069999982647,,,,,,,,,,,,,,,,,,,,,,,,,,,,,,,,,,,,,,,,,,,,,,,,,,,,,,,,,,,,,,,,,,,,,,,,,,,,,,,,,,,sub-006,001,2025-01-24_14h38.00.100,NESC3137_N400_exp,2023.2.3,126.2779326790458,2025-01-24 14h38.27.266390 -0400,
house,0,81,81,78,,,,,,,,,,,,,,,,,,,,,0.2061295999997128,,,,0.15881140000010419,0.15898479999987103,,,,,,,,,,,,,,,,,,,,,,,,,,,,,,,,,,,,,,,,,,,,,,,,,,,,,,,,,,,,,,,,,,,,,,,,,,,,,,,,,,,sub-006,001,2025-01-24_14h38.00.100,NESC3137_N400_exp,2023.2.3,126.2779326790458,2025-01-24 14h38.27.266390 -0400,
duck,0,82,82,47,,,,,,,,,,,,,,,,,,,,,0.2061295999997128,,,,0.15911159999996016,0.1592572999998083,,,,,,,,,,,,,,,,,,,,,,,,,,,,,,,,,,,,,,,,,,,,,,,,,,,,,,,,,,,,,,,,,,,,,,,,,,,,,,,,,,,sub-006,001,2025-01-24_14h38.00.100,NESC3137_N400_exp,2023.2.3,126.2779326790458,2025-01-24 14h38.27.266390 -0400,
hand,0,83,83,71,,,,,,,,,,,,,,,,,,,,,0.2061295999997128,,,,0.15943560000005164,0.15960409999979674,,,,,,,,,,,,,,,,,,,,,,,,,,,,,,,,,,,,,,,,,,,,,,,,,,,,,,,,,,,,,,,,,,,,,,,,,,,,,,,,,,,sub-006,001,2025-01-24_14h38.00.100,NESC3137_N400_exp,2023.2.3,126.2779326790458,2025-01-24 14h38.27.266390 -0400,
frog,0,84,84,58,,,,,,,,,,,,,,,,,,,,,0.2061295999997128,,,,0.15974430000005668,0.160297399999763,,,,,,,,,,,,,,,,,,,,,,,,,,,,,,,,,,,,,,,,,,,,,,,,,,,,,,,,,,,,,,,,,,,,,,,,,,,,,,,,,,,sub-006,001,2025-01-24_14h38.00.100,NESC3137_N400_exp,2023.2.3,126.2779326790458,2025-01-24 14h38.27.266390 -0400,
bed,0,85,85,13,,,,,,,,,,,,,,,,,,,,,0.2061295999997128,,,,0.16044520000014018,0.1606378000001314,,,,,,,,,,,,,,,,,,,,,,,,,,,,,,,,,,,,,,,,,,,,,,,,,,,,,,,,,,,,,,,,,,,,,,,,,,,,,,,,,,,sub-006,001,2025-01-24_14h38.00.100,NESC3137_N400_exp,2023.2.3,126.2779326790458,2025-01-24 14h38.27.266390 -0400,
lightbulb,0,86,86,91,,,,,,,,,,,,,,,,,,,,,0.2061295999997128,,,,0.1607731999997668,0.1609429000000091,,,,,,,,,,,,,,,,,,,,,,,,,,,,,,,,,,,,,,,,,,,,,,,,,,,,,,,,,,,,,,,,,,,,,,,,,,,,,,,,,,,sub-006,001,2025-01-24_14h38.00.100,NESC3137_N400_exp,2023.2.3,126.2779326790458,2025-01-24 14h38.27.266390 -0400,
fence,0,87,87,52,,,,,,,,,,,,,,,,,,,,,0.2061295999997128,,,,0.16106859999990775,0.16124050000007628,,,,,,,,,,,,,,,,,,,,,,,,,,,,,,,,,,,,,,,,,,,,,,,,,,,,,,,,,,,,,,,,,,,,,,,,,,,,,,,,,,,sub-006,001,2025-01-24_14h38.00.100,NESC3137_N400_exp,2023.2.3,126.2779326790458,2025-01-24 14h38.27.266390 -0400,
ruler,0,88,88,132,,,,,,,,,,,,,,,,,,,,,0.2061295999997128,,,,0.16138679999994565,0.16156109999974433,,,,,,,,,,,,,,,,,,,,,,,,,,,,,,,,,,,,,,,,,,,,,,,,,,,,,,,,,,,,,,,,,,,,,,,,,,,,,,,,,,,sub-006,001,2025-01-24_14h38.00.100,NESC3137_N400_exp,2023.2.3,126.2779326790458,2025-01-24 14h38.27.266390 -0400,
piano,0,89,89,117,,,,,,,,,,,,,,,,,,,,,0.2061295999997128,,,,0.16168939999988652,0.16183689999979833,,,,,,,,,,,,,,,,,,,,,,,,,,,,,,,,,,,,,,,,,,,,,,,,,,,,,,,,,,,,,,,,,,,,,,,,,,,,,,,,,,,sub-006,001,2025-01-24_14h38.00.100,NESC3137_N400_exp,2023.2.3,126.2779326790458,2025-01-24 14h38.27.266390 -0400,
glasses,0,90,90,62,,,,,,,,,,,,,,,,,,,,,0.2061295999997128,,,,0.1619488999999703,0.16208189999997558,,,,,,,,,,,,,,,,,,,,,,,,,,,,,,,,,,,,,,,,,,,,,,,,,,,,,,,,,,,,,,,,,,,,,,,,,,,,,,,,,,,sub-006,001,2025-01-24_14h38.00.100,NESC3137_N400_exp,2023.2.3,126.2779326790458,2025-01-24 14h38.27.266390 -0400,
scissors,0,91,91,135,,,,,,,,,,,,,,,,,,,,,0.2061295999997128,,,,0.16218979999985095,0.16231759999982387,,,,,,,,,,,,,,,,,,,,,,,,,,,,,,,,,,,,,,,,,,,,,,,,,,,,,,,,,,,,,,,,,,,,,,,,,,,,,,,,,,,sub-006,001,2025-01-24_14h38.00.100,NESC3137_N400_exp,2023.2.3,126.2779326790458,2025-01-24 14h38.27.266390 -0400,
mitten,0,92,92,97,,,,,,,,,,,,,,,,,,,,,0.2061295999997128,,,,0.1624246999999741,0.16256369999973685,,,,,,,,,,,,,,,,,,,,,,,,,,,,,,,,,,,,,,,,,,,,,,,,,,,,,,,,,,,,,,,,,,,,,,,,,,,,,,,,,,,sub-006,001,2025-01-24_14h38.00.100,NESC3137_N400_exp,2023.2.3,126.2779326790458,2025-01-24 14h38.27.266390 -0400,
horse,0,93,93,77,,,,,,,,,,,,,,,,,,,,,0.2061295999997128,,,,0.16267190000007758,0.1627984000001561,,,,,,,,,,,,,,,,,,,,,,,,,,,,,,,,,,,,,,,,,,,,,,,,,,,,,,,,,,,,,,,,,,,,,,,,,,,,,,,,,,,sub-006,001,2025-01-24_14h38.00.100,NESC3137_N400_exp,2023.2.3,126.2779326790458,2025-01-24 14h38.27.266390 -0400,
bee,0,94,94,14,,,,,,,,,,,,,,,,,,,,,0.2061295999997128,,,,0.1629096000001482,0.16304020000006858,,,,,,,,,,,,,,,,,,,,,,,,,,,,,,,,,,,,,,,,,,,,,,,,,,,,,,,,,,,,,,,,,,,,,,,,,,,,,,,,,,,sub-006,001,2025-01-24_14h38.00.100,NESC3137_N400_exp,2023.2.3,126.2779326790458,2025-01-24 14h38.27.266390 -0400,
sandwich,0,95,95,134,,,,,,,,,,,,,,,,,,,,,0.2061295999997128,,,,0.16315110000005006,0.16328389999989668,,,,,,,,,,,,,,,,,,,,,,,,,,,,,,,,,,,,,,,,,,,,,,,,,,,,,,,,,,,,,,,,,,,,,,,,,,,,,,,,,,,sub-006,001,2025-01-24_14h38.00.100,NESC3137_N400_exp,2023.2.3,126.2779326790458,2025-01-24 14h38.27.266390 -0400,
babycarriage,0,96,96,7,,,,,,,,,,,,,,,,,,,,,0.2061295999997128,,,,0.1634241000001566,0.1636041000001569,,,,,,,,,,,,,,,,,,,,,,,,,,,,,,,,,,,,,,,,,,,,,,,,,,,,,,,,,,,,,,,,,,,,,,,,,,,,,,,,,,,sub-006,001,2025-01-24_14h38.00.100,NESC3137_N400_exp,2023.2.3,126.2779326790458,2025-01-24 14h38.27.266390 -0400,
stove,0,97,97,149,,,,,,,,,,,,,,,,,,,,,0.2061295999997128,,,,0.16372539999974833,0.163884600000074,,,,,,,,,,,,,,,,,,,,,,,,,,,,,,,,,,,,,,,,,,,,,,,,,,,,,,,,,,,,,,,,,,,,,,,,,,,,,,,,,,,sub-006,001,2025-01-24_14h38.00.100,NESC3137_N400_exp,2023.2.3,126.2779326790458,2025-01-24 14h38.27.266390 -0400,
deer,0,98,98,40,,,,,,,,,,,,,,,,,,,,,0.2061295999997128,,,,0.164045200000146,0.16419559999985722,,,,,,,,,,,,,,,,,,,,,,,,,,,,,,,,,,,,,,,,,,,,,,,,,,,,,,,,,,,,,,,,,,,,,,,,,,,,,,,,,,,sub-006,001,2025-01-24_14h38.00.100,NESC3137_N400_exp,2023.2.3,126.2779326790458,2025-01-24 14h38.27.266390 -0400,
gloves,0,99,99,63,,,,,,,,,,,,,,,,,,,,,0.2061295999997128,,,,0.16431299999976545,0.1644430999999713,,,,,,,,,,,,,,,,,,,,,,,,,,,,,,,,,,,,,,,,,,,,,,,,,,,,,,,,,,,,,,,,,,,,,,,,,,,,,,,,,,,sub-006,001,2025-01-24_14h38.00.100,NESC3137_N400_exp,2023.2.3,126.2779326790458,2025-01-24 14h38.27.266390 -0400,
camel,0,100,100,24,,,,,,,,,,,,,,,,,,,,,0.2061295999997128,,,,0.16456919999973252,0.16472190000013143,,,,,,,,,,,,,,,,,,,,,,,,,,,,,,,,,,,,,,,,,,,,,,,,,,,,,,,,,,,,,,,,,,,,,,,,,,,,,,,,,,,sub-006,001,2025-01-24_14h38.00.100,NESC3137_N400_exp,2023.2.3,126.2779326790458,2025-01-24 14h38.27.266390 -0400,
dresser,0,101,101,45,,,,,,,,,,,,,,,,,,,,,0.2061295999997128,,,,0.1648523999997451,0.16502760000003036,,,,,,,,,,,,,,,,,,,,,,,,,,,,,,,,,,,,,,,,,,,,,,,,,,,,,,,,,,,,,,,,,,,,,,,,,,,,,,,,,,,sub-006,001,2025-01-24_14h38.00.100,NESC3137_N400_exp,2023.2.3,126.2779326790458,2025-01-24 14h38.27.266390 -0400,
sun,0,102,102,152,,,,,,,,,,,,,,,,,,,,,0.2061295999997128,,,,0.165168999999878,0.16534150000006775,,,,,,,,,,,,,,,,,,,,,,,,,,,,,,,,,,,,,,,,,,,,,,,,,,,,,,,,,,,,,,,,,,,,,,,,,,,,,,,,,,,sub-006,001,2025-01-24_14h38.00.100,NESC3137_N400_exp,2023.2.3,126.2779326790458,2025-01-24 14h38.27.266390 -0400,
potato,0,103,103,124,,,,,,,,,,,,,,,,,,,,,0.2061295999997128,,,,0.1654769000001579,0.16563240000004953,,,,,,,,,,,,,,,,,,,,,,,,,,,,,,,,,,,,,,,,,,,,,,,,,,,,,,,,,,,,,,,,,,,,,,,,,,,,,,,,,,,sub-006,001,2025-01-24_14h38.00.100,NESC3137_N400_exp,2023.2.3,126.2779326790458,2025-01-24 14h38.27.266390 -0400,
axe,0,104,104,6,,,,,,,,,,,,,,,,,,,,,0.2061295999997128,,,,0.16576729999997042,0.16592549999995754,,,,,,,,,,,,,,,,,,,,,,,,,,,,,,,,,,,,,,,,,,,,,,,,,,,,,,,,,,,,,,,,,,,,,,,,,,,,,,,,,,,sub-006,001,2025-01-24_14h38.00.100,NESC3137_N400_exp,2023.2.3,126.2779326790458,2025-01-24 14h38.27.266390 -0400,
leaf,0,105,105,87,,,,,,,,,,,,,,,,,,,,,0.2061295999997128,,,,0.16604899999992995,0.1662186999997175,,,,,,,,,,,,,,,,,,,,,,,,,,,,,,,,,,,,,,,,,,,,,,,,,,,,,,,,,,,,,,,,,,,,,,,,,,,,,,,,,,,sub-006,001,2025-01-24_14h38.00.100,NESC3137_N400_exp,2023.2.3,126.2779326790458,2025-01-24 14h38.27.266390 -0400,
orange,0,106,106,105,,,,,,,,,,,,,,,,,,,,,0.2061295999997128,,,,0.1663395999999011,0.16647199999988516,,,,,,,,,,,,,,,,,,,,,,,,,,,,,,,,,,,,,,,,,,,,,,,,,,,,,,,,,,,,,,,,,,,,,,,,,,,,,,,,,,,sub-006,001,2025-01-24_14h38.00.100,NESC3137_N400_exp,2023.2.3,126.2779326790458,2025-01-24 14h38.27.266390 -0400,
lettuce,0,107,107,90,,,,,,,,,,,,,,,,,,,,,0.2061295999997128,,,,0.1665821000001415,0.16670680000015636,,,,,,,,,,,,,,,,,,,,,,,,,,,,,,,,,,,,,,,,,,,,,,,,,,,,,,,,,,,,,,,,,,,,,,,,,,,,,,,,,,,sub-006,001,2025-01-24_14h38.00.100,NESC3137_N400_exp,2023.2.3,126.2779326790458,2025-01-24 14h38.27.266390 -0400,
belt,0,108,108,15,,,,,,,,,,,,,,,,,,,,,0.2061295999997128,,,,0.1668150999998943,0.16695500000014363,,,,,,,,,,,,,,,,,,,,,,,,,,,,,,,,,,,,,,,,,,,,,,,,,,,,,,,,,,,,,,,,,,,,,,,,,,,,,,,,,,,sub-006,001,2025-01-24_14h38.00.100,NESC3137_N400_exp,2023.2.3,126.2779326790458,2025-01-24 14h38.27.266390 -0400,
giraffe,0,109,109,61,,,,,,,,,,,,,,,,,,,,,0.2061295999997128,,,,0.1670632000000296,0.1671885000000657,,,,,,,,,,,,,,,,,,,,,,,,,,,,,,,,,,,,,,,,,,,,,,,,,,,,,,,,,,,,,,,,,,,,,,,,,,,,,,,,,,,sub-006,001,2025-01-24_14h38.00.100,NESC3137_N400_exp,2023.2.3,126.2779326790458,2025-01-24 14h38.27.266390 -0400,
garbagecan,0,110,110,60,,,,,,,,,,,,,,,,,,,,,0.2061295999997128,,,,0.16729510000004666,0.16744840000001204,,,,,,,,,,,,,,,,,,,,,,,,,,,,,,,,,,,,,,,,,,,,,,,,,,,,,,,,,,,,,,,,,,,,,,,,,,,,,,,,,,,sub-006,001,2025-01-24_14h38.00.100,NESC3137_N400_exp,2023.2.3,126.2779326790458,2025-01-24 14h38.27.266390 -0400,
cherry,0,111,111,31,,,,,,,,,,,,,,,,,,,,,0.2061295999997128,,,,0.16755920000014157,0.16774350000014238,,,,,,,,,,,,,,,,,,,,,,,,,,,,,,,,,,,,,,,,,,,,,,,,,,,,,,,,,,,,,,,,,,,,,,,,,,,,,,,,,,,sub-006,001,2025-01-24_14h38.00.100,NESC3137_N400_exp,2023.2.3,126.2779326790458,2025-01-24 14h38.27.266390 -0400,
cake,0,112,112,23,,,,,,,,,,,,,,,,,,,,,0.2061295999997128,,,,0.1678538999999546,0.16817649999984496,,,,,,,,,,,,,,,,,,,,,,,,,,,,,,,,,,,,,,,,,,,,,,,,,,,,,,,,,,,,,,,,,,,,,,,,,,,,,,,,,,,sub-006,001,2025-01-24_14h38.00.100,NESC3137_N400_exp,2023.2.3,126.2779326790458,2025-01-24 14h38.27.266390 -0400,
clown,0,113,113,36,,,,,,,,,,,,,,,,,,,,,0.2061295999997128,,,,0.16830639999989216,0.16848639999989246,,,,,,,,,,,,,,,,,,,,,,,,,,,,,,,,,,,,,,,,,,,,,,,,,,,,,,,,,,,,,,,,,,,,,,,,,,,,,,,,,,,sub-006,001,2025-01-24_14h38.00.100,NESC3137_N400_exp,2023.2.3,126.2779326790458,2025-01-24 14h38.27.266390 -0400,
eagle,0,114,114,48,,,,,,,,,,,,,,,,,,,,,0.2061295999997128,,,,0.16864579999992202,0.1688230999998268,,,,,,,,,,,,,,,,,,,,,,,,,,,,,,,,,,,,,,,,,,,,,,,,,,,,,,,,,,,,,,,,,,,,,,,,,,,,,,,,,,,sub-006,001,2025-01-24_14h38.00.100,NESC3137_N400_exp,2023.2.3,126.2779326790458,2025-01-24 14h38.27.266390 -0400,
vase,0,115,115,167,,,,,,,,,,,,,,,,,,,,,0.2061295999997128,,,,0.1689501000000746,0.16912109999975655,,,,,,,,,,,,,,,,,,,,,,,,,,,,,,,,,,,,,,,,,,,,,,,,,,,,,,,,,,,,,,,,,,,,,,,,,,,,,,,,,,,sub-006,001,2025-01-24_14h38.00.100,NESC3137_N400_exp,2023.2.3,126.2779326790458,2025-01-24 14h38.27.266390 -0400,
pencil,0,116,116,115,,,,,,,,,,,,,,,,,,,,,0.2061295999997128,,,,0.1692878999997447,0.16946240000015678,,,,,,,,,,,,,,,,,,,,,,,,,,,,,,,,,,,,,,,,,,,,,,,,,,,,,,,,,,,,,,,,,,,,,,,,,,,,,,,,,,,sub-006,001,2025-01-24_14h38.00.100,NESC3137_N400_exp,2023.2.3,126.2779326790458,2025-01-24 14h38.27.266390 -0400,
guitar,0,117,117,67,,,,,,,,,,,,,,,,,,,,,0.2061295999997128,,,,0.16958410000006552,0.16974189999973532,,,,,,,,,,,,,,,,,,,,,,,,,,,,,,,,,,,,,,,,,,,,,,,,,,,,,,,,,,,,,,,,,,,,,,,,,,,,,,,,,,,sub-006,001,2025-01-24_14h38.00.100,NESC3137_N400_exp,2023.2.3,126.2779326790458,2025-01-24 14h38.27.266390 -0400,
flag,0,118,118,55,,,,,,,,,,,,,,,,,,,,,0.2061295999997128,,,,0.16994199999999182,0.1701124000001073,,,,,,,,,,,,,,,,,,,,,,,,,,,,,,,,,,,,,,,,,,,,,,,,,,,,,,,,,,,,,,,,,,,,,,,,,,,,,,,,,,,sub-006,001,2025-01-24_14h38.00.100,NESC3137_N400_exp,2023.2.3,126.2779326790458,2025-01-24 14h38.27.266390 -0400,
fryingpan,0,119,119,59,,,,,,,,,,,,,,,,,,,,,0.2061295999997128,,,,0.17024679999985892,0.17038610000008703,,,,,,,,,,,,,,,,,,,,,,,,,,,,,,,,,,,,,,,,,,,,,,,,,,,,,,,,,,,,,,,,,,,,,,,,,,,,,,,,,,,sub-006,001,2025-01-24_14h38.00.100,NESC3137_N400_exp,2023.2.3,126.2779326790458,2025-01-24 14h38.27.266390 -0400,
purse,0,120,120,125,,,,,,,,,,,,,,,,,,,,,0.2061295999997128,,,,0.17051839999976437,0.17066279999971812,,,,,,,,,,,,,,,,,,,,,,,,,,,,,,,,,,,,,,,,,,,,,,,,,,,,,,,,,,,,,,,,,,,,,,,,,,,,,,,,,,,sub-006,001,2025-01-24_14h38.00.100,NESC3137_N400_exp,2023.2.3,126.2779326790458,2025-01-24 14h38.27.266390 -0400,
hanger,0,121,121,72,,,,,,,,,,,,,,,,,,,,,0.2061295999997128,,,,0.17078529999980674,0.17094399999996313,,,,,,,,,,,,,,,,,,,,,,,,,,,,,,,,,,,,,,,,,,,,,,,,,,,,,,,,,,,,,,,,,,,,,,,,,,,,,,,,,,,sub-006,001,2025-01-24_14h38.00.100,NESC3137_N400_exp,2023.2.3,126.2779326790458,2025-01-24 14h38.27.266390 -0400,
pear,0,122,122,114,,,,,,,,,,,,,,,,,,,,,0.2061295999997128,,,,0.1710745999998835,0.17123039999978573,,,,,,,,,,,,,,,,,,,,,,,,,,,,,,,,,,,,,,,,,,,,,,,,,,,,,,,,,,,,,,,,,,,,,,,,,,,,,,,,,,,sub-006,001,2025-01-24_14h38.00.100,NESC3137_N400_exp,2023.2.3,126.2779326790458,2025-01-24 14h38.27.266390 -0400,
rabbit,0,123,123,126,,,,,,,,,,,,,,,,,,,,,0.2061295999997128,,,,0.17135659999985364,0.17153499999994892,,,,,,,,,,,,,,,,,,,,,,,,,,,,,,,,,,,,,,,,,,,,,,,,,,,,,,,,,,,,,,,,,,,,,,,,,,,,,,,,,,,sub-006,001,2025-01-24_14h38.00.100,NESC3137_N400_exp,2023.2.3,126.2779326790458,2025-01-24 14h38.27.266390 -0400,
squirrel,0,124,124,147,,,,,,,,,,,,,,,,,,,,,0.2061295999997128,,,,0.17166369999995368,0.17185740000013539,,,,,,,,,,,,,,,,,,,,,,,,,,,,,,,,,,,,,,,,,,,,,,,,,,,,,,,,,,,,,,,,,,,,,,,,,,,,,,,,,,,sub-006,001,2025-01-24_14h38.00.100,NESC3137_N400_exp,2023.2.3,126.2779326790458,2025-01-24 14h38.27.266390 -0400,
paintbrush,0,125,125,108,,,,,,,,,,,,,,,,,,,,,0.2061295999997128,,,,0.17203340000014578,0.17220150000002832,,,,,,,,,,,,,,,,,,,,,,,,,,,,,,,,,,,,,,,,,,,,,,,,,,,,,,,,,,,,,,,,,,,,,,,,,,,,,,,,,,,sub-006,001,2025-01-24_14h38.00.100,NESC3137_N400_exp,2023.2.3,126.2779326790458,2025-01-24 14h38.27.266390 -0400,
accordion,0,126,126,0,,,,,,,,,,,,,,,,,,,,,0.2061295999997128,,,,0.1723458000001301,0.17249749999973574,,,,,,,,,,,,,,,,,,,,,,,,,,,,,,,,,,,,,,,,,,,,,,,,,,,,,,,,,,,,,,,,,,,,,,,,,,,,,,,,,,,sub-006,001,2025-01-24_14h38.00.100,NESC3137_N400_exp,2023.2.3,126.2779326790458,2025-01-24 14h38.27.266390 -0400,
kite,0,127,127,83,,,,,,,,,,,,,,,,,,,,,0.2061295999997128,,,,0.17262380000011035,0.17276649999985239,,,,,,,,,,,,,,,,,,,,,,,,,,,,,,,,,,,,,,,,,,,,,,,,,,,,,,,,,,,,,,,,,,,,,,,,,,,,,,,,,,,sub-006,001,2025-01-24_14h38.00.100,NESC3137_N400_exp,2023.2.3,126.2779326790458,2025-01-24 14h38.27.266390 -0400,
peacock,0,128,128,112,,,,,,,,,,,,,,,,,,,,,0.2061295999997128,,,,0.17294219999985216,0.17310219999990295,,,,,,,,,,,,,,,,,,,,,,,,,,,,,,,,,,,,,,,,,,,,,,,,,,,,,,,,,,,,,,,,,,,,,,,,,,,,,,,,,,,sub-006,001,2025-01-24_14h38.00.100,NESC3137_N400_exp,2023.2.3,126.2779326790458,2025-01-24 14h38.27.266390 -0400,
goat,0,129,129,64,,,,,,,,,,,,,,,,,,,,,0.2061295999997128,,,,0.17322620000004463,0.17340060000015,,,,,,,,,,,,,,,,,,,,,,,,,,,,,,,,,,,,,,,,,,,,,,,,,,,,,,,,,,,,,,,,,,,,,,,,,,,,,,,,,,,sub-006,001,2025-01-24_14h38.00.100,NESC3137_N400_exp,2023.2.3,126.2779326790458,2025-01-24 14h38.27.266390 -0400,
lock,0,130,130,96,,,,,,,,,,,,,,,,,,,,,0.2061295999997128,,,,0.17359929999975066,0.17377219999980298,,,,,,,,,,,,,,,,,,,,,,,,,,,,,,,,,,,,,,,,,,,,,,,,,,,,,,,,,,,,,,,,,,,,,,,,,,,,,,,,,,,sub-006,001,2025-01-24_14h38.00.100,NESC3137_N400_exp,2023.2.3,126.2779326790458,2025-01-24 14h38.27.266390 -0400,
knife,0,131,131,84,,,,,,,,,,,,,,,,,,,,,0.2061295999997128,,,,0.17391059999999925,0.17406579999988026,,,,,,,,,,,,,,,,,,,,,,,,,,,,,,,,,,,,,,,,,,,,,,,,,,,,,,,,,,,,,,,,,,,,,,,,,,,,,,,,,,,sub-006,001,2025-01-24_14h38.00.100,NESC3137_N400_exp,2023.2.3,126.2779326790458,2025-01-24 14h38.27.266390 -0400,
snowman,0,132,132,145,,,,,,,,,,,,,,,,,,,,,0.2061295999997128,,,,0.17419250000011743,0.17433070000015505,,,,,,,,,,,,,,,,,,,,,,,,,,,,,,,,,,,,,,,,,,,,,,,,,,,,,,,,,,,,,,,,,,,,,,,,,,,,,,,,,,,sub-006,001,2025-01-24_14h38.00.100,NESC3137_N400_exp,2023.2.3,126.2779326790458,2025-01-24 14h38.27.266390 -0400,
shoe,0,133,133,140,,,,,,,,,,,,,,,,,,,,,0.2061295999997128,,,,0.1744594000001598,0.17459280000002764,,,,,,,,,,,,,,,,,,,,,,,,,,,,,,,,,,,,,,,,,,,,,,,,,,,,,,,,,,,,,,,,,,,,,,,,,,,,,,,,,,,sub-006,001,2025-01-24_14h38.00.100,NESC3137_N400_exp,2023.2.3,126.2779326790458,2025-01-24 14h38.27.266390 -0400,
fence,0,134,134,53,,,,,,,,,,,,,,,,,,,,,0.2061295999997128,,,,0.17470929999990403,0.1748475999997936,,,,,,,,,,,,,,,,,,,,,,,,,,,,,,,,,,,,,,,,,,,,,,,,,,,,,,,,,,,,,,,,,,,,,,,,,,,,,,,,,,,sub-006,001,2025-01-24_14h38.00.100,NESC3137_N400_exp,2023.2.3,126.2779326790458,2025-01-24 14h38.27.266390 -0400,
leg,0,135,135,88,,,,,,,,,,,,,,,,,,,,,0.2061295999997128,,,,0.17499940000016068,0.17515709999997853,,,,,,,,,,,,,,,,,,,,,,,,,,,,,,,,,,,,,,,,,,,,,,,,,,,,,,,,,,,,,,,,,,,,,,,,,,,,,,,,,,,sub-006,001,2025-01-24_14h38.00.100,NESC3137_N400_exp,2023.2.3,126.2779326790458,2025-01-24 14h38.27.266390 -0400,
lobster,0,136,136,95,,,,,,,,,,,,,,,,,,,,,0.2061295999997128,,,,0.1753008000000591,0.17544719999978042,,,,,,,,,,,,,,,,,,,,,,,,,,,,,,,,,,,,,,,,,,,,,,,,,,,,,,,,,,,,,,,,,,,,,,,,,,,,,,,,,,,sub-006,001,2025-01-24_14h38.00.100,NESC3137_N400_exp,2023.2.3,126.2779326790458,2025-01-24 14h38.27.266390 -0400,
alligator,0,137,137,2,,,,,,,,,,,,,,,,,,,,,0.2061295999997128,,,,0.17559029999983977,0.17574520000016491,,,,,,,,,,,,,,,,,,,,,,,,,,,,,,,,,,,,,,,,,,,,,,,,,,,,,,,,,,,,,,,,,,,,,,,,,,,,,,,,,,,sub-006,001,2025-01-24_14h38.00.100,NESC3137_N400_exp,2023.2.3,126.2779326790458,2025-01-24 14h38.27.266390 -0400,
pitcher,0,138,138,121,,,,,,,,,,,,,,,,,,,,,0.2061295999997128,,,,0.17589420000012979,0.17621950000011566,,,,,,,,,,,,,,,,,,,,,,,,,,,,,,,,,,,,,,,,,,,,,,,,,,,,,,,,,,,,,,,,,,,,,,,,,,,,,,,,,,,sub-006,001,2025-01-24_14h38.00.100,NESC3137_N400_exp,2023.2.3,126.2779326790458,2025-01-24 14h38.27.266390 -0400,
wrench,0,139,139,178,,,,,,,,,,,,,,,,,,,,,0.2061295999997128,,,,0.17638970000007248,0.17655359999980647,,,,,,,,,,,,,,,,,,,,,,,,,,,,,,,,,,,,,,,,,,,,,,,,,,,,,,,,,,,,,,,,,,,,,,,,,,,,,,,,,,,sub-006,001,2025-01-24_14h38.00.100,NESC3137_N400_exp,2023.2.3,126.2779326790458,2025-01-24 14h38.27.266390 -0400,
suitcase,0,140,140,151,,,,,,,,,,,,,,,,,,,,,0.2061295999997128,,,,0.17667549999987386,0.17681420000008075,,,,,,,,,,,,,,,,,,,,,,,,,,,,,,,,,,,,,,,,,,,,,,,,,,,,,,,,,,,,,,,,,,,,,,,,,,,,,,,,,,,sub-006,001,2025-01-24_14h38.00.100,NESC3137_N400_exp,2023.2.3,126.2779326790458,2025-01-24 14h38.27.266390 -0400,
balloon,0,141,141,8,,,,,,,,,,,,,,,,,,,,,0.2061295999997128,,,,0.176941799999895,0.17709969999987152,,,,,,,,,,,,,,,,,,,,,,,,,,,,,,,,,,,,,,,,,,,,,,,,,,,,,,,,,,,,,,,,,,,,,,,,,,,,,,,,,,,sub-006,001,2025-01-24_14h38.00.100,NESC3137_N400_exp,2023.2.3,126.2779326790458,2025-01-24 14h38.27.266390 -0400,
lamp,0,142,142,86,,,,,,,,,,,,,,,,,,,,,0.2061295999997128,,,,0.177226299999802,0.17738349999990533,,,,,,,,,,,,,,,,,,,,,,,,,,,,,,,,,,,,,,,,,,,,,,,,,,,,,,,,,,,,,,,,,,,,,,,,,,,,,,,,,,,sub-006,001,2025-01-24_14h38.00.100,NESC3137_N400_exp,2023.2.3,126.2779326790458,2025-01-24 14h38.27.266390 -0400,
rooster,0,143,143,131,,,,,,,,,,,,,,,,,,,,,0.2061295999997128,,,,0.17752470000004905,0.17768329999989874,,,,,,,,,,,,,,,,,,,,,,,,,,,,,,,,,,,,,,,,,,,,,,,,,,,,,,,,,,,,,,,,,,,,,,,,,,,,,,,,,,,sub-006,001,2025-01-24_14h38.00.100,NESC3137_N400_exp,2023.2.3,126.2779326790458,2025-01-24 14h38.27.266390 -0400,
tennisracket,0,144,144,157,,,,,,,,,,,,,,,,,,,,,0.2061295999997128,,,,0.1778337000000647,0.17799060000015743,,,,,,,,,,,,,,,,,,,,,,,,,,,,,,,,,,,,,,,,,,,,,,,,,,,,,,,,,,,,,,,,,,,,,,,,,,,,,,,,,,,sub-006,001,2025-01-24_14h38.00.100,NESC3137_N400_exp,2023.2.3,126.2779326790458,2025-01-24 14h38.27.266390 -0400,
peanut,0,145,145,113,,,,,,,,,,,,,,,,,,,,,0.2061295999997128,,,,0.17812289999983477,0.17826190000005226,,,,,,,,,,,,,,,,,,,,,,,,,,,,,,,,,,,,,,,,,,,,,,,,,,,,,,,,,,,,,,,,,,,,,,,,,,,,,,,,,,,sub-006,001,2025-01-24_14h38.00.100,NESC3137_N400_exp,2023.2.3,126.2779326790458,2025-01-24 14h38.27.266390 -0400,
key,0,146,146,82,,,,,,,,,,,,,,,,,,,,,0.2061295999997128,,,,0.17840709999973114,0.17857999999978347,,,,,,,,,,,,,,,,,,,,,,,,,,,,,,,,,,,,,,,,,,,,,,,,,,,,,,,,,,,,,,,,,,,,,,,,,,,,,,,,,,,sub-006,001,2025-01-24_14h38.00.100,NESC3137_N400_exp,2023.2.3,126.2779326790458,2025-01-24 14h38.27.266390 -0400,
lightswitch,0,147,147,92,,,,,,,,,,,,,,,,,,,,,0.2061295999997128,,,,0.17876609999984794,0.17893270000013217,,,,,,,,,,,,,,,,,,,,,,,,,,,,,,,,,,,,,,,,,,,,,,,,,,,,,,,,,,,,,,,,,,,,,,,,,,,,,,,,,,,sub-006,001,2025-01-24_14h38.00.100,NESC3137_N400_exp,2023.2.3,126.2779326790458,2025-01-24 14h38.27.266390 -0400,
pumpkin,0,148,148,128,,,,,,,,,,,,,,,,,,,,,0.2061295999997128,,,,0.17906330000005255,0.17923900000005233,,,,,,,,,,,,,,,,,,,,,,,,,,,,,,,,,,,,,,,,,,,,,,,,,,,,,,,,,,,,,,,,,,,,,,,,,,,,,,,,,,,sub-006,001,2025-01-24_14h38.00.100,NESC3137_N400_exp,2023.2.3,126.2779326790458,2025-01-24 14h38.27.266390 -0400,
book,0,149,149,17,,,,,,,,,,,,,,,,,,,,,0.2061295999997128,,,,0.17937339999980395,0.1795217999997476,,,,,,,,,,,,,,,,,,,,,,,,,,,,,,,,,,,,,,,,,,,,,,,,,,,,,,,,,,,,,,,,,,,,,,,,,,,,,,,,,,,sub-006,001,2025-01-24_14h38.00.100,NESC3137_N400_exp,2023.2.3,126.2779326790458,2025-01-24 14h38.27.266390 -0400,
wagon,0,150,150,170,,,,,,,,,,,,,,,,,,,,,0.2061295999997128,,,,0.17964050000000498,0.17977849999988393,,,,,,,,,,,,,,,,,,,,,,,,,,,,,,,,,,,,,,,,,,,,,,,,,,,,,,,,,,,,,,,,,,,,,,,,,,,,,,,,,,,sub-006,001,2025-01-24_14h38.00.100,NESC3137_N400_exp,2023.2.3,126.2779326790458,2025-01-24 14h38.27.266390 -0400,
hat,0,151,151,74,,,,,,,,,,,,,,,,,,,,,0.2061295999997128,,,,0.1798930999998447,0.18003060000000914,,,,,,,,,,,,,,,,,,,,,,,,,,,,,,,,,,,,,,,,,,,,,,,,,,,,,,,,,,,,,,,,,,,,,,,,,,,,,,,,,,,sub-006,001,2025-01-24_14h38.00.100,NESC3137_N400_exp,2023.2.3,126.2779326790458,2025-01-24 14h38.27.266390 -0400,
pig,0,152,152,118,,,,,,,,,,,,,,,,,,,,,0.2061295999997128,,,,0.18014790000006542,0.1802892000000611,,,,,,,,,,,,,,,,,,,,,,,,,,,,,,,,,,,,,,,,,,,,,,,,,,,,,,,,,,,,,,,,,,,,,,,,,,,,,,,,,,,sub-006,001,2025-01-24_14h38.00.100,NESC3137_N400_exp,2023.2.3,126.2779326790458,2025-01-24 14h38.27.266390 -0400,
clock,0,153,153,34,,,,,,,,,,,,,,,,,,,,,0.2061295999997128,,,,0.1804207000000133,0.1805518999999549,,,,,,,,,,,,,,,,,,,,,,,,,,,,,,,,,,,,,,,,,,,,,,,,,,,,,,,,,,,,,,,,,,,,,,,,,,,,,,,,,,,sub-006,001,2025-01-24_14h38.00.100,NESC3137_N400_exp,2023.2.3,126.2779326790458,2025-01-24 14h38.27.266390 -0400,
button,0,154,154,22,,,,,,,,,,,,,,,,,,,,,0.2061295999997128,,,,0.18066480000015872,0.18089310000004843,,,,,,,,,,,,,,,,,,,,,,,,,,,,,,,,,,,,,,,,,,,,,,,,,,,,,,,,,,,,,,,,,,,,,,,,,,,,,,,,,,,sub-006,001,2025-01-24_14h38.00.100,NESC3137_N400_exp,2023.2.3,126.2779326790458,2025-01-24 14h38.27.266390 -0400,
lion,0,155,155,93,,,,,,,,,,,,,,,,,,,,,0.2061295999997128,,,,0.18100539999977627,0.18114659999992,,,,,,,,,,,,,,,,,,,,,,,,,,,,,,,,,,,,,,,,,,,,,,,,,,,,,,,,,,,,,,,,,,,,,,,,,,,,,,,,,,,sub-006,001,2025-01-24_14h38.00.100,NESC3137_N400_exp,2023.2.3,126.2779326790458,2025-01-24 14h38.27.266390 -0400,
nail,0,156,156,102,,,,,,,,,,,,,,,,,,,,,0.2061295999997128,,,,0.18125620000000708,0.18138139999973646,,,,,,,,,,,,,,,,,,,,,,,,,,,,,,,,,,,,,,,,,,,,,,,,,,,,,,,,,,,,,,,,,,,,,,,,,,,,,,,,,,,sub-006,001,2025-01-24_14h38.00.100,NESC3137_N400_exp,2023.2.3,126.2779326790458,2025-01-24 14h38.27.266390 -0400,
toothbrush,0,157,157,161,,,,,,,,,,,,,,,,,,,,,0.2061295999997128,,,,0.18149330000005648,0.18165890000000218,,,,,,,,,,,,,,,,,,,,,,,,,,,,,,,,,,,,,,,,,,,,,,,,,,,,,,,,,,,,,,,,,,,,,,,,,,,,,,,,,,,sub-006,001,2025-01-24_14h38.00.100,NESC3137_N400_exp,2023.2.3,126.2779326790458,2025-01-24 14h38.27.266390 -0400,
peach,0,158,158,110,,,,,,,,,,,,,,,,,,,,,0.2061295999997128,,,,0.18180690000008326,0.18196630000011282,,,,,,,,,,,,,,,,,,,,,,,,,,,,,,,,,,,,,,,,,,,,,,,,,,,,,,,,,,,,,,,,,,,,,,,,,,,,,,,,,,,sub-006,001,2025-01-24_14h38.00.100,NESC3137_N400_exp,2023.2.3,126.2779326790458,2025-01-24 14h38.27.266390 -0400,
arm,0,159,159,5,,,,,,,,,,,,,,,,,,,,,0.2061295999997128,,,,0.1820969000000332,0.18224749999990308,,,,,,,,,,,,,,,,,,,,,,,,,,,,,,,,,,,,,,,,,,,,,,,,,,,,,,,,,,,,,,,,,,,,,,,,,,,,,,,,,,,sub-006,001,2025-01-24_14h38.00.100,NESC3137_N400_exp,2023.2.3,126.2779326790458,2025-01-24 14h38.27.266390 -0400,
screwdriver,0,160,160,136,,,,,,,,,,,,,,,,,,,,,0.2061295999997128,,,,0.18237469999985478,0.1825325999998313,,,,,,,,,,,,,,,,,,,,,,,,,,,,,,,,,,,,,,,,,,,,,,,,,,,,,,,,,,,,,,,,,,,,,,,,,,,,,,,,,,,sub-006,001,2025-01-24_14h38.00.100,NESC3137_N400_exp,2023.2.3,126.2779326790458,2025-01-24 14h38.27.266390 -0400,
zebra,0,161,161,179,,,,,,,,,,,,,,,,,,,,,0.2061295999997128,,,,0.18267370000012306,0.18283160000009957,,,,,,,,,,,,,,,,,,,,,,,,,,,,,,,,,,,,,,,,,,,,,,,,,,,,,,,,,,,,,,,,,,,,,,,,,,,,,,,,,,,sub-006,001,2025-01-24_14h38.00.100,NESC3137_N400_exp,2023.2.3,126.2779326790458,2025-01-24 14h38.27.266390 -0400,
dog,0,162,162,42,,,,,,,,,,,,,,,,,,,,,0.2061295999997128,,,,0.1829661000001579,0.18313899999975547,,,,,,,,,,,,,,,,,,,,,,,,,,,,,,,,,,,,,,,,,,,,,,,,,,,,,,,,,,,,,,,,,,,,,,,,,,,,,,,,,,,sub-006,001,2025-01-24_14h38.00.100,NESC3137_N400_exp,2023.2.3,126.2779326790458,2025-01-24 14h38.27.266390 -0400,
crown,0,163,163,39,,,,,,,,,,,,,,,,,,,,,0.2061295999997128,,,,0.18326600000000326,0.18340760000000955,,,,,,,,,,,,,,,,,,,,,,,,,,,,,,,,,,,,,,,,,,,,,,,,,,,,,,,,,,,,,,,,,,,,,,,,,,,,,,,,,,,sub-006,001,2025-01-24_14h38.00.100,NESC3137_N400_exp,2023.2.3,126.2779326790458,2025-01-24 14h38.27.266390 -0400,
violin,0,164,164,169,,,,,,,,,,,,,,,,,,,,,0.2061295999997128,,,,0.1835244999997485,0.18367579999994632,,,,,,,,,,,,,,,,,,,,,,,,,,,,,,,,,,,,,,,,,,,,,,,,,,,,,,,,,,,,,,,,,,,,,,,,,,,,,,,,,,,sub-006,001,2025-01-24_14h38.00.100,NESC3137_N400_exp,2023.2.3,126.2779326790458,2025-01-24 14h38.27.266390 -0400,
bear,0,165,165,12,,,,,,,,,,,,,,,,,,,,,0.2061295999997128,,,,0.1838607999998203,0.18405499999971653,,,,,,,,,,,,,,,,,,,,,,,,,,,,,,,,,,,,,,,,,,,,,,,,,,,,,,,,,,,,,,,,,,,,,,,,,,,,,,,,,,,sub-006,001,2025-01-24_14h38.00.100,NESC3137_N400_exp,2023.2.3,126.2779326790458,2025-01-24 14h38.27.266390 -0400,
television,0,166,166,156,,,,,,,,,,,,,,,,,,,,,0.2061295999997128,,,,0.18426910000016505,0.18445569999994404,,,,,,,,,,,,,,,,,,,,,,,,,,,,,,,,,,,,,,,,,,,,,,,,,,,,,,,,,,,,,,,,,,,,,,,,,,,,,,,,,,,sub-006,001,2025-01-24_14h38.00.100,NESC3137_N400_exp,2023.2.3,126.2779326790458,2025-01-24 14h38.27.266390 -0400,
pineapple,0,167,167,119,,,,,,,,,,,,,,,,,,,,,0.2061295999997128,,,,0.18459170000005543,0.18478109999978187,,,,,,,,,,,,,,,,,,,,,,,,,,,,,,,,,,,,,,,,,,,,,,,,,,,,,,,,,,,,,,,,,,,,,,,,,,,,,,,,,,,sub-006,001,2025-01-24_14h38.00.100,NESC3137_N400_exp,2023.2.3,126.2779326790458,2025-01-24 14h38.27.266390 -0400,
pipe,0,168,168,120,,,,,,,,,,,,,,,,,,,,,0.2061295999997128,,,,0.18492319999995743,0.18510409999998956,,,,,,,,,,,,,,,,,,,,,,,,,,,,,,,,,,,,,,,,,,,,,,,,,,,,,,,,,,,,,,,,,,,,,,,,,,,,,,,,,,,sub-006,001,2025-01-24_14h38.00.100,NESC3137_N400_exp,2023.2.3,126.2779326790458,2025-01-24 14h38.27.266390 -0400,
snake,0,169,169,154,,,,,,,,,,,,,,,,,,,,,0.2061295999997128,,,,0.18524919999981648,0.18544759999986127,,,,,,,,,,,,,,,,,,,,,,,,,,,,,,,,,,,,,,,,,,,,,,,,,,,,,,,,,,,,,,,,,,,,,,,,,,,,,,,,,,,sub-006,001,2025-01-24_14h38.00.100,NESC3137_N400_exp,2023.2.3,126.2779326790458,2025-01-24 14h38.27.266390 -0400,
thimble,0,170,170,158,,,,,,,,,,,,,,,,,,,,,0.2061295999997128,,,,0.18557120000014038,0.18573409999999058,,,,,,,,,,,,,,,,,,,,,,,,,,,,,,,,,,,,,,,,,,,,,,,,,,,,,,,,,,,,,,,,,,,,,,,,,,,,,,,,,,,sub-006,001,2025-01-24_14h38.00.100,NESC3137_N400_exp,2023.2.3,126.2779326790458,2025-01-24 14h38.27.266390 -0400,
fox,0,171,171,57,,,,,,,,,,,,,,,,,,,,,0.2061295999997128,,,,0.1858735999999226,0.18601739999985512,,,,,,,,,,,,,,,,,,,,,,,,,,,,,,,,,,,,,,,,,,,,,,,,,,,,,,,,,,,,,,,,,,,,,,,,,,,,,,,,,,,sub-006,001,2025-01-24_14h38.00.100,NESC3137_N400_exp,2023.2.3,126.2779326790458,2025-01-24 14h38.27.266390 -0400,
moon,0,172,172,99,,,,,,,,,,,,,,,,,,,,,0.2061295999997128,,,,0.18614130000014484,0.18627340000011827,,,,,,,,,,,,,,,,,,,,,,,,,,,,,,,,,,,,,,,,,,,,,,,,,,,,,,,,,,,,,,,,,,,,,,,,,,,,,,,,,,,sub-006,001,2025-01-24_14h38.00.100,NESC3137_N400_exp,2023.2.3,126.2779326790458,2025-01-24 14h38.27.266390 -0400,
fish,0,173,173,54,,,,,,,,,,,,,,,,,,,,,0.2061295999997128,,,,0.18638849999979357,0.18651490000002013,,,,,,,,,,,,,,,,,,,,,,,,,,,,,,,,,,,,,,,,,,,,,,,,,,,,,,,,,,,,,,,,,,,,,,,,,,,,,,,,,,,sub-006,001,2025-01-24_14h38.00.100,NESC3137_N400_exp,2023.2.3,126.2779326790458,2025-01-24 14h38.27.266390 -0400,
wineglass,0,174,174,177,,,,,,,,,,,,,,,,,,,,,0.2061295999997128,,,,0.1866317999997591,0.18676760000016657,,,,,,,,,,,,,,,,,,,,,,,,,,,,,,,,,,,,,,,,,,,,,,,,,,,,,,,,,,,,,,,,,,,,,,,,,,,,,,,,,,,sub-006,001,2025-01-24_14h38.00.100,NESC3137_N400_exp,2023.2.3,126.2779326790458,2025-01-24 14h38.27.266390 -0400,
hammer,0,175,175,70,,,,,,,,,,,,,,,,,,,,,0.2061295999997128,,,,0.1868985999999495,0.18705420000014783,,,,,,,,,,,,,,,,,,,,,,,,,,,,,,,,,,,,,,,,,,,,,,,,,,,,,,,,,,,,,,,,,,,,,,,,,,,,,,,,,,,sub-006,001,2025-01-24_14h38.00.100,NESC3137_N400_exp,2023.2.3,126.2779326790458,2025-01-24 14h38.27.266390 -0400,
barrel,0,176,176,10,,,,,,,,,,,,,,,,,,,,,0.2061295999997128,,,,0.1871963999997206,0.18736859999989974,,,,,,,,,,,,,,,,,,,,,,,,,,,,,,,,,,,,,,,,,,,,,,,,,,,,,,,,,,,,,,,,,,,,,,,,,,,,,,,,,,,sub-006,001,2025-01-24_14h38.00.100,NESC3137_N400_exp,2023.2.3,126.2779326790458,2025-01-24 14h38.27.266390 -0400,
kettle,0,177,177,81,,,,,,,,,,,,,,,,,,,,,0.2061295999997128,,,,0.1875062999997681,0.1876495999999861,,,,,,,,,,,,,,,,,,,,,,,,,,,,,,,,,,,,,,,,,,,,,,,,,,,,,,,,,,,,,,,,,,,,,,,,,,,,,,,,,,,sub-006,001,2025-01-24_14h38.00.100,NESC3137_N400_exp,2023.2.3,126.2779326790458,2025-01-24 14h38.27.266390 -0400,
elephant,0,178,178,49,,,,,,,,,,,,,,,,,,,,,0.2061295999997128,,,,0.18778949999978067,0.18792940000003,,,,,,,,,,,,,,,,,,,,,,,,,,,,,,,,,,,,,,,,,,,,,,,,,,,,,,,,,,,,,,,,,,,,,,,,,,,,,,,,,,,sub-006,001,2025-01-24_14h38.00.100,NESC3137_N400_exp,2023.2.3,126.2779326790458,2025-01-24 14h38.27.266390 -0400,
cigarette,0,179,179,33,,,,,,,,,,,,,,,,,,,,,0.2061295999997128,,,,0.18804229999977906,0.18816460000016377,,,,,,,,,,,,,,,,,,,,,,,,,,,,,,,,,,,,,,,,,,,,,,,,,,,,,,,,,,,,,,,,,,,,,,,,,,,,,,,,,,,sub-006,001,2025-01-24_14h38.00.100,NESC3137_N400_exp,2023.2.3,126.2779326790458,2025-01-24 14h38.27.266390 -0400,
,,,,,0,0,0,0,,,,,,,,,,,,,,,,,0.2061295999997128,,,,,,0.1885386999997536,0.18885369999998147,,,,,,,,,,,,,,,,,,,,,,,,,,,,,,,,,,,,,,,,,,,,,,,,,,,,,,,,,,,,,,,,,,,,,,,,,,,,,,,,,sub-006,001,2025-01-24_14h38.00.100,NESC3137_N400_exp,2023.2.3,126.2779326790458,2025-01-24 14h38.27.266390 -0400,
,,,,,,,,,,,,,,,,,,,,,,,,,,,,,,,,,0.18887519999998403,0.2061295999997128,0.2061295999997128,42.62096930000007,space,42.409685399999944,None,,,,,,,,,,,,,,,,,,,,,,,,,,,,,,,,,,,,,,,,,,,,,,,,,,,,,,,,,,,,,,,,,,,,,,,,,,sub-006,001,2025-01-24_14h38.00.100,NESC3137_N400_exp,2023.2.3,126.2779326790458,2025-01-24 14h38.27.266390 -0400,
,,,,,,,,,0,0,0,0,,,,,,,,,,,,,42.62690810000004,,,,,,,,,,,,,,,42.62179059999971,42.62690810000004,43.141174099999716,43.11395489999995,43.11398259999987,43.141174099999716,43.63039046666678,45.151899200000116,45.1393293000001,45.13934190000009,46.273504499999945,46.273504499999945,49.273749399999815,49.273749399999815,49.273749399999815,50.276428000000124,50.26417749999973,cherry,resources/stimuli/cherry.wav,[],left,0,[],None,0,,,,,,,,,,,,,,,,,,,,,,,,,,,,,,,,,,,,,,,,,,,,,,,,,sub-006,001,2025-01-24_14h38.00.100,NESC3137_N400_exp,2023.2.3,126.2779326790458,2025-01-24 14h38.27.266390 -0400,
,,,,,,,,,1,0,1,0,,,,,,,,,,,,,50.276428000000124,,,,,,,,,,,,,,,50.26541199999974,50.276428000000124,50.777939499999775,50.76098270000011,50.76099549999981,50.777939499999775,51.270075966666596,52.774960700000065,52.76843199999985,52.76844519999986,53.927828699999736,53.927828699999736,,,,,55.8103059,butterfly,resources/stimuli/butterfly_foil.wav,right,right,1,1880.50099999964,right,1,1.88050099999964,None,,,,,,,,,,,,,,,,,,,,,,,,,,,,,,,,,,,,,,,,,,,,,,,sub-006,001,2025-01-24_14h38.00.100,NESC3137_N400_exp,2023.2.3,126.2779326790458,2025-01-24 14h38.27.266390 -0400,
,,,,,,,,,2,0,2,0,,,,,,,,,,,,,55.823413900000105,,,,,,,,,,,,,,,55.81180409999979,55.823413900000105,,56.32142369999974,56.3214382000001,56.354102499999954,56.81337246666659,58.352058399999805,58.341340299999956,58.34136189999981,59.4560019999999,59.4560019999999,,,,,60.22094650000008,hair,resources/stimuli/hair.wav,left,left,1,761.0948999999891,left,1,0.7610948999999891,None,,,,,,,,,,,,,,,,,,,,,,,,,,,,,,,,,,,,,,,,,,,,,,,sub-006,001,2025-01-24_14h38.00.100,NESC3137_N400_exp,2023.2.3,126.2779326790458,2025-01-24 14h38.27.266390 -0400,
,,,,,,,,,3,0,3,0,,,,,,,,,,,,,60.22705099999985,,,,,,,,,,,,,,,60.222153700000035,60.22705099999985,,60.722386299999926,60.72240430000011,60.734368099999756,61.22285516666649,62.734410000000025,62.721483400000125,62.721502899999905,63.8754356999998,63.8754356999998,,,,,64.06991500000004,truck,resources/stimuli/truck_foil.wav,right,right,1,181.73539999997956,right,1,0.18173539999997956,None,,,,,,,,,,,,,,,,,,,,,,,,,,,,,,,,,,,,,,,,,,,,,,,sub-006,001,2025-01-24_14h38.00.100,NESC3137_N400_exp,2023.2.3,126.2779326790458,2025-01-24 14h38.27.266390 -0400,
,,,,,,,,,4,0,4,0,,,,,,,,,,,,,64.0820278000001,,,,,,,,,,,,,,,64.07141520000005,64.0820278000001,64.59696369999983,64.57030639999994,64.57031740000002,64.59696369999983,65.07122146666667,66.58914259999983,66.58230150000009,66.58231389999992,67.72171849999995,67.72171849999995,,,,,68.83365400000002,gorilla,resources/stimuli/gorilla.wav,left,left,1,1111.047299999882,left,1,1.111047299999882,None,,,,,,,,,,,,,,,,,,,,,,,,,,,,,,,,,,,,,,,,,,,,,,,sub-006,001,2025-01-24_14h38.00.100,NESC3137_N400_exp,2023.2.3,126.2779326790458,2025-01-24 14h38.27.266390 -0400,
,,,,,,,,,5,0,5,0,,,,,,,,,,,,,68.84675979999975,,,,,,,,,,,,,,,68.83498180000015,68.84675979999975,,69.3354844999999,69.33549779999976,69.3601862999999,69.8443414666665,71.36668220000001,71.34977359999993,71.34979029999977,72.49375789999976,72.49375789999976,,,,,72.93831199999977,vest,resources/stimuli/vest_foil.wav,right,right,1,434.89339999996446,right,1,0.43489339999996446,None,,,,,,,,,,,,,,,,,,,,,,,,,,,,,,,,,,,,,,,,,,,,,,,sub-006,001,2025-01-24_14h38.00.100,NESC3137_N400_exp,2023.2.3,126.2779326790458,2025-01-24 14h38.27.266390 -0400,
,,,,,,,,,6,0,6,0,,,,,,,,,,,,,72.94422489999988,,,,,,,,,,,,,,,72.93963230000008,72.94422489999988,,73.44282229999999,73.44283959999984,73.46036400000003,73.94097016666662,75.45159939999985,75.4454909000001,75.44550819999995,76.59789139999975,76.59789139999975,,,,,77.00260769999977,penguin,resources/stimuli/penguin.wav,left,left,1,402.79999999984284,left,1,0.40279999999984284,None,,,,,,,,,,,,,,,,,,,,,,,,,,,,,,,,,,,,,,,,,,,,,,,sub-006,001,2025-01-24_14h38.00.100,NESC3137_N400_exp,2023.2.3,126.2779326790458,2025-01-24 14h38.27.266390 -0400,
,,,,,,,,,7,0,7,0,,,,,,,,,,,,,77.01611159999993,,,,,,,,,,,,,,,77.00384080000003,77.01611159999993,77.53731740000012,77.50155330000007,77.5015669999998,77.53731740000012,78.0159161666668,79.53935749999982,79.52486289999979,79.52487659999997,80.64792399999988,80.64792399999988,,,,,81.19634339999993,fox,resources/stimuli/fox_foil.wav,right,right,1,537.3688999998194,right,1,0.5373688999998194,None,,,,,,,,,,,,,,,,,,,,,,,,,,,,,,,,,,,,,,,,,,,,,,,sub-006,001,2025-01-24_14h38.00.100,NESC3137_N400_exp,2023.2.3,126.2779326790458,2025-01-24 14h38.27.266390 -0400,
,,,,,,,,,8,0,8,0,,,,,,,,,,,,,81.21232039999995,,,,,,,,,,,,,,,81.19782559999976,81.21232039999995,,81.69962309999983,81.69964979999986,81.71850159999985,82.20569466666645,83.70995559999983,83.70359539999981,83.70360960000016,84.84213409999984,84.84213409999984,,,,,85.25483440000016,apple,resources/stimuli/apple.wav,left,left,1,406.5636000000268,left,1,0.4065636000000268,None,,,,,,,,,,,,,,,,,,,,,,,,,,,,,,,,,,,,,,,,,,,,,,,sub-006,001,2025-01-24_14h38.00.100,NESC3137_N400_exp,2023.2.3,126.2779326790458,2025-01-24 14h38.27.266390 -0400,
,,,,,,,,,9,0,9,0,,,,,,,,,,,,,85.26957839999977,,,,,,,,,,,,,,,85.25616089999994,85.26957839999977,,85.76010569999971,85.76012029999993,85.77958559999979,86.25568306666652,87.78168129999995,87.76729220000016,87.76731380000001,88.8998972999998,88.8998972999998,,,,,89.51022609999973,seal,resources/stimuli/seal.wav,right,left,0,597.9517999999189,right,0,0.5979517999999189,None,,,,,,,,,,,,,,,,,,,,,,,,,,,,,,,,,,,,,,,,,,,,,,,sub-006,001,2025-01-24_14h38.00.100,NESC3137_N400_exp,2023.2.3,126.2779326790458,2025-01-24 14h38.27.266390 -0400,
,,,,,,,,,10,0,10,0,,,,,,,,,,,,,89.52350010000009,,,,,,,,,,,,,,,89.5123223999999,89.52350010000009,,90.01301539999986,90.01302690000011,90.0452150000001,90.51701506666656,92.03939149999997,92.03083199999992,92.03084829999989,93.16717410000001,93.16717410000001,,,,,93.50544929999978,hanger,resources/stimuli/hanger.wav,left,left,1,330.7956999997259,left,1,0.3307956999997259,None,,,,,,,,,,,,,,,,,,,,,,,,,,,,,,,,,,,,,,,,,,,,,,,sub-006,001,2025-01-24_14h38.00.100,NESC3137_N400_exp,2023.2.3,126.2779326790458,2025-01-24 14h38.27.266390 -0400,
,,,,,,,,,11,0,11,0,,,,,,,,,,,,,93.51695519999976,,,,,,,,,,,,,,,93.50667759999988,93.51695519999976,,94.00642560000006,94.00643679999985,94.03441479999992,94.51476136666658,96.02437169999985,96.01940599999989,96.01941970000007,97.15234299999975,97.15234299999975,,,,,97.68589870000005,spider,resources/stimuli/spider_foil.wav,right,right,1,521.4897000000747,right,1,0.5214897000000747,None,,,,,,,,,,,,,,,,,,,,,,,,,,,,,,,,,,,,,,,,,,,,,,,sub-006,001,2025-01-24_14h38.00.100,NESC3137_N400_exp,2023.2.3,126.2779326790458,2025-01-24 14h38.27.266390 -0400,
,,,,,,,,,12,0,12,0,,,,,,,,,,,,,97.6985080999998,,,,,,,,,,,,,,,97.68723339999997,97.6985080999998,,98.18700820000004,98.18701909999982,98.20535659999996,98.68757356666653,100.19860530000005,100.19385379999994,100.19386489999988,101.33047609999994,101.33047609999994,,,,,101.70365099999981,tree,resources/stimuli/tree.wav,left,left,1,359.117000000424,left,1,0.359117000000424,None,,,,,,,,,,,,,,,,,,,,,,,,,,,,,,,,,,,,,,,,,,,,,,,sub-006,001,2025-01-24_14h38.00.100,NESC3137_N400_exp,2023.2.3,126.2779326790458,2025-01-24 14h38.27.266390 -0400,
,,,,,,,,,13,0,13,0,,,,,,,,,,,,,101.71537119999994,,,,,,,,,,,,,,,101.70506969999997,101.71537119999994,,102.20704279999973,102.20705980000002,102.22063309999976,102.7036434666668,104.21279240000013,104.20645599999989,104.20646989999977,105.35952730000008,105.35952730000008,,,,,106.12464199999977,kangaroo,resources/stimuli/kangaroo_foil.wav,right,right,1,754.0526000002501,right,1,0.7540526000002501,None,,,,,,,,,,,,,,,,,,,,,,,,,,,,,,,,,,,,,,,,,,,,,,,sub-006,001,2025-01-24_14h38.00.100,NESC3137_N400_exp,2023.2.3,126.2779326790458,2025-01-24 14h38.27.266390 -0400,
,,,,,,,,,14,0,14,0,,,,,,,,,,,,,106.13849789999995,,,,,,,,,,,,,,,106.12614029999986,106.13849789999995,,106.63000710000006,106.63002019999976,106.65771659999973,107.13490506666655,108.65113519999977,108.64455859999998,108.64457089999996,109.7851212999999,109.7851212999999,,,,,110.88155779999988,goat,resources/stimuli/goat.wav,left,left,1,1089.3032999997558,left,1,1.0893032999997558,None,,,,,,,,,,,,,,,,,,,,,,,,,,,,,,,,,,,,,,,,,,,,,,,sub-006,001,2025-01-24_14h38.00.100,NESC3137_N400_exp,2023.2.3,126.2779326790458,2025-01-24 14h38.27.266390 -0400,
,,,,,,,,,15,0,15,0,,,,,,,,,,,,,110.88742090000005,,,,,,,,,,,,,,,110.88289339999983,110.88742090000005,111.3903022999998,111.37465729999985,111.3746686999998,111.3903022999998,111.89244676666682,113.38142179999977,113.37476019999986,113.37477409999974,114.53518059999988,114.53518059999988,,,,,115.43356619999986,piano,resources/stimuli/piano.wav,right,left,0,890.958700000283,right,0,0.890958700000283,None,,,,,,,,,,,,,,,,,,,,,,,,,,,,,,,,,,,,,,,,,,,,,,,sub-006,001,2025-01-24_14h38.00.100,NESC3137_N400_exp,2023.2.3,126.2779326790458,2025-01-24 14h38.27.266390 -0400,
,,,,,,,,,16,0,16,0,,,,,,,,,,,,,115.44597639999984,,,,,,,,,,,,,,,115.43493829999989,115.44597639999984,,115.9385142000001,115.93852489999972,115.9701842999998,116.44033906666643,117.96603959999993,117.95955869999989,117.95957159999989,119.08360570000013,119.08360570000013,,,,,119.55738199999996,monkey,resources/stimuli/monkey.wav,left,left,1,462.2605000004114,left,1,0.4622605000004114,None,,,,,,,,,,,,,,,,,,,,,,,,,,,,,,,,,,,,,,,,,,,,,,,sub-006,001,2025-01-24_14h38.00.100,NESC3137_N400_exp,2023.2.3,126.2779326790458,2025-01-24 14h38.27.266390 -0400,
,,,,,,,,,17,0,17,0,,,,,,,,,,,,,119.56973049999988,,,,,,,,,,,,,,,119.55893569999989,119.56973049999988,120.07198070000004,120.05827069999987,120.05829240000003,120.07198070000004,120.56818346666638,122.06300789999977,122.05712099999982,122.05713409999998,123.20917860000009,123.20917860000009,,,,,123.86988470000006,fryingpan,resources/stimuli/fryingpan_foil.wav,right,right,1,656.5725999998904,right,1,0.6565725999998904,None,,,,,,,,,,,,,,,,,,,,,,,,,,,,,,,,,,,,,,,,,,,,,,,sub-006,001,2025-01-24_14h38.00.100,NESC3137_N400_exp,2023.2.3,126.2779326790458,2025-01-24 14h38.27.266390 -0400,
,,,,,,,,,18,0,18,0,,,,,,,,,,,,,123.88297150000017,,,,,,,,,,,,,,,123.87168059999976,123.88297150000017,124.40809050000007,124.3696903,124.36970519999977,124.40809050000007,124.8716255666666,126.40572650000013,126.39622389999977,126.39624079999976,127.51551960000006,127.51551960000006,,,,,128.19009659999983,guitar,resources/stimuli/guitar_foil.wav,right,right,1,671.0496000000603,right,1,0.6710496000000603,None,,,,,,,,,,,,,,,,,,,,,,,,,,,,,,,,,,,,,,,,,,,,,,,sub-006,001,2025-01-24_14h38.00.100,NESC3137_N400_exp,2023.2.3,126.2779326790458,2025-01-24 14h38.27.266390 -0400,
,,,,,,,,,19,0,19,0,,,,,,,,,,,,,128.2026737000001,,,,,,,,,,,,,,,128.1914609999999,128.2026737000001,128.70417959999986,128.68980909999982,128.68982210000013,128.70417959999986,129.19909166666665,130.6966140999998,130.68991270000015,130.689934,131.83533959999977,131.83533959999977,,,,,132.57477519999975,glasses,resources/stimuli/glasses.wav,left,left,1,735.4563999997481,left,1,0.7354563999997481,None,,,,,,,,,,,,,,,,,,,,,,,,,,,,,,,,,,,,,,,,,,,,,,,sub-006,001,2025-01-24_14h38.00.100,NESC3137_N400_exp,2023.2.3,126.2779326790458,2025-01-24 14h38.27.266390 -0400,
,,,,,,,,,20,0,20,0,,,,,,,,,,,,,132.58637420000014,,,,,,,,,,,,,,,132.57667719999972,132.58637420000014,133.0982009999998,133.07248889999983,133.07250239999985,133.0982009999998,133.5841102666666,135.09396430000015,135.08646210000006,135.08647470000005,136.22609139999986,136.22609139999986,,,,,137.05279819999987,hat,resources/stimuli/hat_foil.wav,right,right,1,825.1224000000548,right,1,0.8251224000000548,None,,,,,,,,,,,,,,,,,,,,,,,,,,,,,,,,,,,,,,,,,,,,,,,sub-006,001,2025-01-24_14h38.00.100,NESC3137_N400_exp,2023.2.3,126.2779326790458,2025-01-24 14h38.27.266390 -0400,
,,,,,,,,,21,0,21,0,,,,,,,,,,,,,137.06567910000012,,,,,,,,,,,,,,,137.05428529999972,137.06567910000012,137.57647700000007,137.55399750000015,137.5540105,137.57647700000007,138.05825596666662,139.56627979999985,139.56022380000013,139.56023760000016,140.70603849999998,140.70603849999998,,,,,141.3167023000001,kettle,resources/stimuli/kettle.wav,left,left,1,608.6241999996673,left,1,0.6086241999996673,None,,,,,,,,,,,,,,,,,,,,,,,,,,,,,,,,,,,,,,,,,,,,,,,sub-006,001,2025-01-24_14h38.00.100,NESC3137_N400_exp,2023.2.3,126.2779326790458,2025-01-24 14h38.27.266390 -0400,
,,,,,,,,,22,0,22,0,,,,,,,,,,,,,141.3298246999998,,,,,,,,,,,,,,,141.31812489999993,141.3298246999998,141.83880369999997,141.81677820000004,141.81678869999996,141.83880369999997,142.32760356666657,143.8390045000001,143.82478570000012,143.82479969999986,144.97060060000013,144.97060060000013,,,,,145.68670109999994,violin,resources/stimuli/violin.wav,left,left,1,712.0364000002155,left,1,0.7120364000002155,None,,,,,,,,,,,,,,,,,,,,,,,,,,,,,,,,,,,,,,,,,,,,,,,sub-006,001,2025-01-24_14h38.00.100,NESC3137_N400_exp,2023.2.3,126.2779326790458,2025-01-24 14h38.27.266390 -0400,
,,,,,,,,,23,0,23,0,,,,,,,,,,,,,145.69915170000013,,,,,,,,,,,,,,,145.68812339999977,145.69915170000013,146.21440029999985,146.1857,146.1857117999998,146.21440029999985,146.68967136666677,148.20603359999996,148.2000533999999,148.2000678999998,149.33986499999992,149.33986499999992,,,,,150.03392829999984,window,resources/stimuli/window_foil.wav,right,right,1,686.8865999999798,right,1,0.6868865999999798,None,,,,,,,,,,,,,,,,,,,,,,,,,,,,,,,,,,,,,,,,,,,,,,,sub-006,001,2025-01-24_14h38.00.100,NESC3137_N400_exp,2023.2.3,126.2779326790458,2025-01-24 14h38.27.266390 -0400,
,,,,,,,,,24,0,24,0,,,,,,,,,,,,,150.0511016999999,,,,,,,,,,,,,,,150.03596340000013,150.0511016999999,150.55584109999972,150.53516179999997,150.53517439999996,150.55584109999972,151.0444300666666,152.5470277999998,152.54136949999975,152.54138139999986,153.68605260000004,153.68605260000004,,,,,154.25077729999975,snowman,resources/stimuli/snowman_foil.wav,right,right,1,556.5974999999526,right,1,0.5565974999999526,None,,,,,,,,,,,,,,,,,,,,,,,,,,,,,,,,,,,,,,,,,,,,,,,sub-006,001,2025-01-24_14h38.00.100,NESC3137_N400_exp,2023.2.3,126.2779326790458,2025-01-24 14h38.27.266390 -0400,
,,,,,,,,,25,0,25,0,,,,,,,,,,,,,154.26291020000008,,,,,,,,,,,,,,,154.25220200000012,154.26291020000008,154.78363880000006,154.75059109999984,154.75060140000005,154.78363880000006,155.26047096666642,156.78397829999994,156.77218129999983,156.77220230000012,157.895348,157.895348,,,,,158.30598929999996,cigarette,resources/stimuli/cigarette.wav,left,left,1,403.27049999996234,left,1,0.40327049999996234,None,,,,,,,,,,,,,,,,,,,,,,,,,,,,,,,,,,,,,,,,,,,,,,,sub-006,001,2025-01-24_14h38.00.100,NESC3137_N400_exp,2023.2.3,126.2779326790458,2025-01-24 14h38.27.266390 -0400,
,,,,,,,,,26,0,26,0,,,,,,,,,,,,,158.31873429999996,,,,,,,,,,,,,,,158.3072898999999,158.31873429999996,,158.8140257,158.81403709999995,158.8487427,159.30961246666655,160.84289009999975,160.83400010000014,160.83401379999987,161.95126100000016,161.95126100000016,,,,,162.45265440000003,paintbrush,resources/stimuli/paintbrush_foil.wav,right,right,1,500.0285000000986,right,1,0.5000285000000986,None,,,,,,,,,,,,,,,,,,,,,,,,,,,,,,,,,,,,,,,,,,,,,,,sub-006,001,2025-01-24_14h38.00.100,NESC3137_N400_exp,2023.2.3,126.2779326790458,2025-01-24 14h38.27.266390 -0400,
,,,,,,,,,27,0,27,0,,,,,,,,,,,,,162.46513060000007,,,,,,,,,,,,,,,162.45389250000017,162.46513060000007,162.98587820000012,162.95166470000004,162.95168319999993,162.98587820000012,163.45444626666657,164.98660680000012,164.97345719999976,164.97347149999996,166.1044539999998,166.1044539999998,,,,,166.71731980000004,lamp,resources/stimuli/lamp_foil.wav,right,right,1,610.8864999996513,right,1,0.6108864999996513,None,,,,,,,,,,,,,,,,,,,,,,,,,,,,,,,,,,,,,,,,,,,,,,,sub-006,001,2025-01-24_14h38.00.100,NESC3137_N400_exp,2023.2.3,126.2779326790458,2025-01-24 14h38.27.266390 -0400,
,,,,,,,,,28,0,28,0,,,,,,,,,,,,,166.7360238000001,,,,,,,,,,,,,,,166.7186274999999,166.7360238000001,,167.22445019999986,167.2244682999999,167.25209529999984,167.71900556666677,169.24428959999977,169.23902799999996,169.23904319999974,170.36892450000005,170.36892450000005,,,,,171.10786009999993,peanut,resources/stimuli/peanut_foil.wav,right,right,1,730.6858000001739,right,1,0.7306858000001739,None,,,,,,,,,,,,,,,,,,,,,,,,,,,,,,,,,,,,,,,,,,,,,,,sub-006,001,2025-01-24_14h38.00.100,NESC3137_N400_exp,2023.2.3,126.2779326790458,2025-01-24 14h38.27.266390 -0400,
,,,,,,,,,29,0,29,0,,,,,,,,,,,,,171.11970239999982,,,,,,,,,,,,,,,171.10929380000016,171.11970239999982,171.64676109999982,171.60784719999992,171.6078647999998,171.64676109999982,172.10844166666655,173.65602820000004,173.6430117,173.64303340000015,174.7537652000001,174.7537652000001,,,,,175.32176649999974,pig,resources/stimuli/pig.wav,left,left,1,561.6002000001572,left,1,0.5616002000001572,None,,,,,,,,,,,,,,,,,,,,,,,,,,,,,,,,,,,,,,,,,,,,,,,sub-006,001,2025-01-24_14h38.00.100,NESC3137_N400_exp,2023.2.3,126.2779326790458,2025-01-24 14h38.27.266390 -0400,
,,,,,,,,,30,0,30,0,,,,,,,,,,,,,175.3284303999999,,,,,,,,,,,,,,,175.3231022,175.3284303999999,175.85784190000004,175.81687499999998,175.8168842,175.85784190000004,176.32522516666657,177.85655210000004,177.8512357999998,177.8512541,178.96760399999994,178.96760399999994,,,,,179.622476,flower,resources/stimuli/flower_foil.wav,right,right,1,652.2305000003144,right,1,0.6522305000003144,None,,,,,,,,,,,,,,,,,,,,,,,,,,,,,,,,,,,,,,,,,,,,,,,sub-006,001,2025-01-24_14h38.00.100,NESC3137_N400_exp,2023.2.3,126.2779326790458,2025-01-24 14h38.27.266390 -0400,
,,,,,,,,,31,0,31,0,,,,,,,,,,,,,179.63431760000003,,,,,,,,,,,,,,,179.62383739999996,179.63431760000003,,180.12339659999998,180.12341070000002,180.13880010000003,180.62384986666646,182.13491620000013,182.12914309999996,182.12915680000015,183.2697417999998,183.2697417999998,,,,,183.90698169999996,pineapple,resources/stimuli/pineapple_foil.wav,right,right,1,630.374099999699,right,1,0.630374099999699,None,,,,,,,,,,,,,,,,,,,,,,,,,,,,,,,,,,,,,,,,,,,,,,,sub-006,001,2025-01-24_14h38.00.100,NESC3137_N400_exp,2023.2.3,126.2779326790458,2025-01-24 14h38.27.266390 -0400,
,,,,,,,,,32,0,32,0,,,,,,,,,,,,,183.91991400000006,,,,,,,,,,,,,,,183.90870050000012,183.91991400000006,184.43375749999996,184.40794520000009,184.4079554,184.43375749999996,184.92026146666674,186.4343958999998,186.4283577000001,186.4283700000001,187.56803179999997,187.56803179999997,,,,,188.1374608000001,lips,resources/stimuli/lips_foil.wav,right,right,1,563.6752000000342,right,1,0.5636752000000342,None,,,,,,,,,,,,,,,,,,,,,,,,,,,,,,,,,,,,,,,,,,,,,,,sub-006,001,2025-01-24_14h38.00.100,NESC3137_N400_exp,2023.2.3,126.2779326790458,2025-01-24 14h38.27.266390 -0400,
,,,,,,,,,33,0,33,0,,,,,,,,,,,,,188.15394590000005,,,,,,,,,,,,,,,188.14056699999992,188.15394590000005,,188.64336920000005,188.6433836000001,188.65688219999993,189.13879896666666,190.6572787,190.6453535999999,190.6453673000001,191.79088490000004,191.79088490000004,,,,,192.5202258999998,key,resources/stimuli/key_foil.wav,right,right,1,725.1470999999583,right,1,0.7251470999999583,None,,,,,,,,,,,,,,,,,,,,,,,,,,,,,,,,,,,,,,,,,,,,,,,sub-006,001,2025-01-24_14h38.00.100,NESC3137_N400_exp,2023.2.3,126.2779326790458,2025-01-24 14h38.27.266390 -0400,
,,,,,,,,,34,0,34,0,,,,,,,,,,,,,192.5322658,,,,,,,,,,,,,,,192.5220036999999,192.5322658,193.03259189999972,193.0193347999998,193.01934970000002,193.03259189999972,193.52339016666681,195.02694810000003,195.01941780000016,195.01943649999976,196.17165609999984,196.17165609999984,,,,,196.77714190000006,barrel,resources/stimuli/barrel.wav,left,left,1,600.4107999997359,left,1,0.6004107999997359,None,,,,,,,,,,,,,,,,,,,,,,,,,,,,,,,,,,,,,,,,,,,,,,,sub-006,001,2025-01-24_14h38.00.100,NESC3137_N400_exp,2023.2.3,126.2779326790458,2025-01-24 14h38.27.266390 -0400,
,,,,,,,,,35,0,35,0,,,,,,,,,,,,,196.79008569999996,,,,,,,,,,,,,,,196.77862969999978,196.79008569999996,,197.27792069999987,197.27793229999997,197.29687650000005,197.78088676666655,199.28992440000002,199.2840940000001,199.28410870000016,200.42472610000004,200.42472610000004,,,,,201.03643150000016,jacket,resources/stimuli/jacket_foil.wav,right,right,1,603.7438999996994,right,1,0.6037438999996994,None,,,,,,,,,,,,,,,,,,,,,,,,,,,,,,,,,,,,,,,,,,,,,,,sub-006,001,2025-01-24_14h38.00.100,NESC3137_N400_exp,2023.2.3,126.2779326790458,2025-01-24 14h38.27.266390 -0400,
,,,,,,,,,36,0,36,0,,,,,,,,,,,,,201.0483094000001,,,,,,,,,,,,,,,201.0376723999998,201.0483094000001,201.56170280000015,201.53514859999996,201.53515919999973,201.56170280000015,202.0439413666666,203.55487529999982,203.54958570000008,203.54960249999976,204.68710699999974,204.68710699999974,,,,,205.38482479999993,bed,resources/stimuli/bed.wav,left,left,1,692.8373000000647,left,1,0.6928373000000647,None,,,,,,,,,,,,,,,,,,,,,,,,,,,,,,,,,,,,,,,,,,,,,,,sub-006,001,2025-01-24_14h38.00.100,NESC3137_N400_exp,2023.2.3,126.2779326790458,2025-01-24 14h38.27.266390 -0400,
,,,,,,,,,37,0,37,0,,,,,,,,,,,,,205.39787709999973,,,,,,,,,,,,,,,205.3860850000001,205.39787709999973,205.9095572000001,205.88482139999996,205.88483469999983,205.9095572000001,206.38485396666673,207.9172470999997,207.9079072999998,207.9079216,209.03467,209.03467,,,,,209.73774559999993,rooster,resources/stimuli/rooster_foil.wav,right,right,1,698.0403000002298,right,1,0.6980403000002298,None,,,,,,,,,,,,,,,,,,,,,,,,,,,,,,,,,,,,,,,,,,,,,,,sub-006,001,2025-01-24_14h38.00.100,NESC3137_N400_exp,2023.2.3,126.2779326790458,2025-01-24 14h38.27.266390 -0400,
,,,,,,,,,38,0,38,0,,,,,,,,,,,,,209.75044249999974,,,,,,,,,,,,,,,209.7391004000001,209.75044249999974,210.26583949999986,210.23809979999987,210.23811209999985,210.26583949999986,210.74614956666645,212.26554149999993,212.25941160000002,212.25942729999997,213.38273059999983,213.38273059999983,,,,,214.08736229999977,giraffe,resources/stimuli/giraffe_foil.wav,right,right,1,701.9074999998338,right,1,0.7019074999998338,None,,,,,,,,,,,,,,,,,,,,,,,,,,,,,,,,,,,,,,,,,,,,,,,sub-006,001,2025-01-24_14h38.00.100,NESC3137_N400_exp,2023.2.3,126.2779326790458,2025-01-24 14h38.27.266390 -0400,
,,,,,,,,,39,0,39,0,,,,,,,,,,,,,214.0984027999998,,,,,,,,,,,,,,,214.0887256000001,214.0984027999998,214.6127231999999,214.58542709999983,214.58544279999978,214.6127231999999,215.08769236666674,216.61963430000014,216.60630880000008,216.60632970000006,217.73025199999984,217.73025199999984,,,,,218.30812430000015,table,resources/stimuli/table_foil.wav,right,right,1,570.554699999775,right,1,0.570554699999775,None,,,,,,,,,,,,,,,,,,,,,,,,,,,,,,,,,,,,,,,,,,,,,,,sub-006,001,2025-01-24_14h38.00.100,NESC3137_N400_exp,2023.2.3,126.2779326790458,2025-01-24 14h38.27.266390 -0400,
,,,,,,,,,40,0,40,0,,,,,,,,,,,,,218.32118619999983,,,,,,,,,,,,,,,218.30943339999976,218.32118619999983,,218.80972399999973,218.80973760000006,218.84356720000005,219.31300826666646,220.8354233,220.8288109,220.82882459999973,221.95370159999993,221.95370159999993,,,,,222.66293529999984,mitten,resources/stimuli/mitten_foil.wav,right,right,1,707.1030000001883,right,1,0.7071030000001883,None,,,,,,,,,,,,,,,,,,,,,,,,,,,,,,,,,,,,,,,,,,,,,,,sub-006,001,2025-01-24_14h38.00.100,NESC3137_N400_exp,2023.2.3,126.2779326790458,2025-01-24 14h38.27.266390 -0400,
,,,,,,,,,41,0,41,0,,,,,,,,,,,,,222.67968079999991,,,,,,,,,,,,,,,222.6641924999999,222.67968079999991,223.18286390000003,223.16285789999984,223.16287109999985,223.18286390000003,223.66455136666653,225.1764844999998,225.1698550000001,225.1698707999999,226.31538640000008,226.31538640000008,,,,,226.80492730000014,wineglass,resources/stimuli/wineglass.wav,left,left,1,482.00050000014016,left,1,0.48200050000014016,None,,,,,,,,,,,,,,,,,,,,,,,,,,,,,,,,,,,,,,,,,,,,,,,sub-006,001,2025-01-24_14h38.00.100,NESC3137_N400_exp,2023.2.3,126.2779326790458,2025-01-24 14h38.27.266390 -0400,
,,,,,,,,,42,0,42,0,,,,,,,,,,,,,226.81600949999984,,,,,,,,,,,,,,,226.8063877999998,226.81600949999984,,227.3138340999999,227.31384769999977,227.33644830000003,227.81127036666683,229.32985370000006,229.32303289999982,229.32304750000003,230.45146599999998,230.45146599999998,,,,,230.99739249999993,sun,resources/stimuli/sun_foil.wav,right,right,1,537.0073999997658,right,1,0.5370073999997658,None,,,,,,,,,,,,,,,,,,,,,,,,,,,,,,,,,,,,,,,,,,,,,,,sub-006,001,2025-01-24_14h38.00.100,NESC3137_N400_exp,2023.2.3,126.2779326790458,2025-01-24 14h38.27.266390 -0400,
,,,,,,,,,43,0,43,0,,,,,,,,,,,,,231.01223200000004,,,,,,,,,,,,,,,230.9986525999998,231.01223200000004,,231.51106589999972,231.5110870999997,231.54270229999975,232.00444596666674,233.55465289999984,233.5411454,233.54115860000002,234.64446420000013,234.64446420000013,,,,,235.19235470000012,fish,resources/stimuli/fish.wav,left,left,1,536.8772000001627,left,1,0.5368772000001627,None,,,,,,,,,,,,,,,,,,,,,,,,,,,,,,,,,,,,,,,,,,,,,,,sub-006,001,2025-01-24_14h38.00.100,NESC3137_N400_exp,2023.2.3,126.2779326790458,2025-01-24 14h38.27.266390 -0400,
,,,,,,,,,44,0,44,0,0,0,0,0,,,,,,,,,239.43554349999977,,,,,,,,,,,,,,,235.19399459999977,235.2056861000001,235.73040319999973,235.69305399999985,235.69307200000003,235.73040319999973,236.19502536666667,237.71955019999996,237.7144285999998,237.7144416000001,238.84624759999997,238.84624759999997,,,,,239.41567989999976,gloves,resources/stimuli/gloves.wav,left,left,1,566.5594000001875,left,1,0.5665594000001875,None,239.4169606999999,239.43554349999977,269.4189311,269.4189311,269.42597879999994,272.40657839999994,space,2.9785853000003044,None,,,,,,,,,,,,,,,,,,,,,,,,,,,,,,,,,,,,,,sub-006,001,2025-01-24_14h38.00.100,NESC3137_N400_exp,2023.2.3,126.2779326790458,2025-01-24 14h38.27.266390 -0400,
,,,,,,,,,44,0,44,0,,,,,,,,,,,,,,,,,,,,,,,,,,,,,,,,,,,,,,,,,,,,,,,,,,,,,,,,,,,,,,,,,,,,,,,,,,,,,,,,,,,,,,,,,,,,,,,,,,,,,sub-006,001,2025-01-24_14h38.00.100,NESC3137_N400_exp,2023.2.3,126.2779326790458,2025-01-24 14h38.27.266390 -0400,
,,,,,,,,,45,0,45,0,,,,,,,,,,,,,272.41241360000004,,,,,,,,,,,,,,,272.40742580000006,272.41241360000004,272.92698569999993,272.9010616999999,272.90107290000014,272.92698569999993,273.4083744666666,274.9355071,274.92579579999983,274.9258104999999,276.0532889000001,276.0532889000001,,,,,276.4202941999997,ostrich,resources/stimuli/ostrich_foil.wav,right,right,1,360.8009999998103,right,1,0.3608009999998103,None,,,,,,,,,,,,,,,,,,,,,,,,,,,,,,,,,,,,,,,,,,,,,,,sub-006,001,2025-01-24_14h38.00.100,NESC3137_N400_exp,2023.2.3,126.2779326790458,2025-01-24 14h38.27.266390 -0400,
,,,,,,,,,46,0,46,0,,,,,,,,,,,,,276.4269088000001,,,,,,,,,,,,,,,276.4217088999999,276.4269088000001,276.9407412999999,276.9133925000001,276.9134046999998,276.9407412999999,277.42675356666655,278.9430606000001,278.92838170000005,278.92839790000016,280.0668016999998,280.0668016999998,,,,,280.63708610000003,tennisracket,resources/stimuli/tennisracket_foil.wav,right,right,1,563.1330999999591,right,1,0.5631330999999591,None,,,,,,,,,,,,,,,,,,,,,,,,,,,,,,,,,,,,,,,,,,,,,,,sub-006,001,2025-01-24_14h38.00.100,NESC3137_N400_exp,2023.2.3,126.2779326790458,2025-01-24 14h38.27.266390 -0400,
,,,,,,,,,47,0,47,0,,,,,,,,,,,,,280.6499636999997,,,,,,,,,,,,,,,280.6385581999998,280.6499636999997,281.1499008999999,281.13694840000016,281.13695989999997,281.1499008999999,281.6462048666665,283.1431228000001,283.1365876,283.1366008,284.28202310000006,284.28202310000006,,,,,284.7842022,mountain,resources/stimuli/mountain.wav,left,left,1,499.86589999980424,left,1,0.49986589999980424,None,,,,,,,,,,,,,,,,,,,,,,,,,,,,,,,,,,,,,,,,,,,,,,,sub-006,001,2025-01-24_14h38.00.100,NESC3137_N400_exp,2023.2.3,126.2779326790458,2025-01-24 14h38.27.266390 -0400,
,,,,,,,,,48,0,48,0,,,,,,,,,,,,,284.79701769999974,,,,,,,,,,,,,,,284.7854333,284.79701769999974,285.31763420000016,285.2832837000001,285.2832946999997,285.31763420000016,285.7858931666667,287.31049219999977,287.3037798999999,287.3037925999997,288.4364430999999,288.4364430999999,,,,,289.0840582000001,suitcase,resources/stimuli/suitcase.wav,left,left,1,642.2284000000218,left,1,0.6422284000000218,None,,,,,,,,,,,,,,,,,,,,,,,,,,,,,,,,,,,,,,,,,,,,,,,sub-006,001,2025-01-24_14h38.00.100,NESC3137_N400_exp,2023.2.3,126.2779326790458,2025-01-24 14h38.27.266390 -0400,
,,,,,,,,,49,0,49,0,,,,,,,,,,,,,289.0980860999998,,,,,,,,,,,,,,,289.08524869999974,289.0980860999998,,289.5886793999998,289.5886909999999,289.61638649999986,290.08648076666645,291.6122866999999,291.6036487000001,291.6036650000001,292.72821380000005,292.72821380000005,,,,,293.2716421,cat,resources/stimuli/cat_foil.wav,right,right,1,542.3550000000432,right,1,0.5423550000000432,None,,,,,,,,,,,,,,,,,,,,,,,,,,,,,,,,,,,,,,,,,,,,,,,sub-006,001,2025-01-24_14h38.00.100,NESC3137_N400_exp,2023.2.3,126.2779326790458,2025-01-24 14h38.27.266390 -0400,
,,,,,,,,,50,0,50,0,,,,,,,,,,,,,293.2847091999997,,,,,,,,,,,,,,,293.2729639999998,293.2847091999997,293.7979968999998,293.77080479999995,293.77081610000005,293.7979968999998,294.2766491666664,295.7914402000001,295.7848448999998,295.78485869999986,296.92295620000004,296.92295620000004,,,,,297.4033795999999,axe,resources/stimuli/axe_foil.wav,right,right,1,475.84340000003067,right,1,0.47584340000003067,None,,,,,,,,,,,,,,,,,,,,,,,,,,,,,,,,,,,,,,,,,,,,,,,sub-006,001,2025-01-24_14h38.00.100,NESC3137_N400_exp,2023.2.3,126.2779326790458,2025-01-24 14h38.27.266390 -0400,
,,,,,,,,,51,0,51,0,,,,,,,,,,,,,297.4095044999999,,,,,,,,,,,,,,,297.40461779999987,297.4095044999999,297.92386320000014,297.89656590000004,297.8965797000001,297.92386320000014,298.41076556666644,299.91674269999976,299.9108673999999,299.91088390000004,301.04937599999994,301.04937599999994,,,,,301.3897876000001,seahorse,resources/stimuli/seahorse_foil.wav,right,right,1,333.0748999997013,right,1,0.3330748999997013,None,,,,,,,,,,,,,,,,,,,,,,,,,,,,,,,,,,,,,,,,,,,,,,,sub-006,001,2025-01-24_14h38.00.100,NESC3137_N400_exp,2023.2.3,126.2779326790458,2025-01-24 14h38.27.266390 -0400,
,,,,,,,,,52,0,52,0,,,,,,,,,,,,,301.3958373999999,,,,,,,,,,,,,,,301.3910471999998,301.3958373999999,,301.8920687,301.8920801999998,301.9105067999999,302.3940746666665,303.90355850000014,303.89712740000004,303.89715650000016,305.04286790000015,305.04286790000015,,,,,305.7117798999998,desk,resources/stimuli/desk.wav,left,left,1,667.6781000001029,left,1,0.6676781000001029,None,,,,,,,,,,,,,,,,,,,,,,,,,,,,,,,,,,,,,,,,,,,,,,,sub-006,001,2025-01-24_14h38.00.100,NESC3137_N400_exp,2023.2.3,126.2779326790458,2025-01-24 14h38.27.266390 -0400,
,,,,,,,,,53,0,53,0,,,,,,,,,,,,,305.7235366,,,,,,,,,,,,,,,305.7129848999998,305.7235366,,306.2175957999998,306.2176076999999,306.23061989999997,306.7130455666668,308.23236499999985,308.2246326999998,308.2246543000001,309.35619199999974,309.35619199999974,,,,,309.6620954,pumpkin,resources/stimuli/pumpkin.wav,left,left,1,298.7631999999394,left,1,0.2987631999999394,None,,,,,,,,,,,,,,,,,,,,,,,,,,,,,,,,,,,,,,,,,,,,,,,sub-006,001,2025-01-24_14h38.00.100,NESC3137_N400_exp,2023.2.3,126.2779326790458,2025-01-24 14h38.27.266390 -0400,
,,,,,,,,,54,0,54,0,,,,,,,,,,,,,309.6751675999999,,,,,,,,,,,,,,,309.6633434999999,309.6751675999999,,310.16850209999984,310.1685186999998,310.20453910000015,310.6644455666667,312.2080074999999,312.1934228,312.19343690000005,313.30764369999997,313.30764369999997,,,,,313.65594150000015,hand,resources/stimuli/hand_foil.wav,right,right,1,347.38000000015745,right,1,0.34738000000015745,None,,,,,,,,,,,,,,,,,,,,,,,,,,,,,,,,,,,,,,,,,,,,,,,sub-006,001,2025-01-24_14h38.00.100,NESC3137_N400_exp,2023.2.3,126.2779326790458,2025-01-24 14h38.27.266390 -0400,
,,,,,,,,,55,0,55,0,,,,,,,,,,,,,313.66882350000014,,,,,,,,,,,,,,,313.65741530000014,313.66882350000014,314.1700112999997,314.1554339999998,314.1554464999999,314.1700112999997,314.65972376666673,316.16203559999985,316.1557207999999,316.1557379000001,317.3024941999997,317.3024941999997,,,,,317.76125999999977,belt,resources/stimuli/belt_foil.wav,right,right,1,456.71500000025844,right,1,0.45671500000025844,None,,,,,,,,,,,,,,,,,,,,,,,,,,,,,,,,,,,,,,,,,,,,,,,sub-006,001,2025-01-24_14h38.00.100,NESC3137_N400_exp,2023.2.3,126.2779326790458,2025-01-24 14h38.27.266390 -0400,
,,,,,,,,,56,0,56,0,,,,,,,,,,,,,317.77344140000014,,,,,,,,,,,,,,,317.7626273000001,317.77344140000014,,318.26683300000013,318.2668493000001,318.28120720000015,318.76300006666656,320.2739882000001,320.26744899999994,320.26746300000013,321.40587240000013,321.40587240000013,,,,,321.9000105,leg,resources/stimuli/leg_foil.wav,right,right,1,481.5702999999303,right,1,0.4815702999999303,None,,,,,,,,,,,,,,,,,,,,,,,,,,,,,,,,,,,,,,,,,,,,,,,sub-006,001,2025-01-24_14h38.00.100,NESC3137_N400_exp,2023.2.3,126.2779326790458,2025-01-24 14h38.27.266390 -0400,
,,,,,,,,,57,0,57,0,,,,,,,,,,,,,321.91447629999993,,,,,,,,,,,,,,,321.9014635999997,321.91447629999993,,322.4093125999998,322.40932699999985,322.4297022999999,322.9025425666666,324.42021079999995,324.4137912000001,324.4138044000001,325.5532923999999,325.5532923999999,,,,,326.0499903,gun,resources/stimuli/gun.wav,left,left,1,486.49859999977707,left,1,0.48649859999977707,None,,,,,,,,,,,,,,,,,,,,,,,,,,,,,,,,,,,,,,,,,,,,,,,sub-006,001,2025-01-24_14h38.00.100,NESC3137_N400_exp,2023.2.3,126.2779326790458,2025-01-24 14h38.27.266390 -0400,
,,,,,,,,,58,0,58,0,,,,,,,,,,,,,326.0623178000001,,,,,,,,,,,,,,,326.0512527000001,326.0623178000001,326.5734364,326.5465903999998,326.54660239999976,326.5734364,327.0575114666665,328.5742715000001,328.5629402999998,328.5629848999997,329.6921566000001,329.6921566000001,,,,,330.15825270000005,drum,resources/stimuli/drum_foil.wav,right,right,1,459.3638000001192,right,1,0.4593638000001192,None,,,,,,,,,,,,,,,,,,,,,,,,,,,,,,,,,,,,,,,,,,,,,,,sub-006,001,2025-01-24_14h38.00.100,NESC3137_N400_exp,2023.2.3,126.2779326790458,2025-01-24 14h38.27.266390 -0400,
,,,,,,,,,59,0,59,0,,,,,,,,,,,,,330.17119479999974,,,,,,,,,,,,,,,330.1595591,330.17119479999974,330.68517489999977,330.65804249999974,330.6580598999999,330.68517489999977,331.1637477666666,332.68606420000015,332.67567240000017,332.6756915000001,333.8053283999998,333.8053283999998,,,,,334.2638489000001,sheep,resources/stimuli/sheep.wav,left,left,1,457.81289999968067,left,1,0.45781289999968067,None,,,,,,,,,,,,,,,,,,,,,,,,,,,,,,,,,,,,,,,,,,,,,,,sub-006,001,2025-01-24_14h38.00.100,NESC3137_N400_exp,2023.2.3,126.2779326790458,2025-01-24 14h38.27.266390 -0400,
,,,,,,,,,60,0,60,0,,,,,,,,,,,,,334.2763885999998,,,,,,,,,,,,,,,334.26518020000003,334.2763885999998,,334.77063610000005,334.7706505000001,334.8045305999999,335.2670063666667,336.79728840000007,336.79109040000003,336.7911052999998,337.9085559,337.9085559,,,,,338.76394389999996,tomato,resources/stimuli/tomato_foil.wav,right,right,1,842.5641999997424,right,1,0.8425641999997424,None,,,,,,,,,,,,,,,,,,,,,,,,,,,,,,,,,,,,,,,,,,,,,,,sub-006,001,2025-01-24_14h38.00.100,NESC3137_N400_exp,2023.2.3,126.2779326790458,2025-01-24 14h38.27.266390 -0400,
,,,,,,,,,61,0,61,0,,,,,,,,,,,,,338.77869310000005,,,,,,,,,,,,,,,338.7651956999998,338.77869310000005,,339.27074059999995,339.27076099999977,339.3004369999999,339.76571236666655,341.29114130000016,341.2845020999998,341.2845140999998,342.4116617999998,342.4116617999998,,,,,343.31354250000004,shoe,resources/stimuli/shoe_foil.wav,right,right,1,899.5991000001595,right,1,0.8995991000001595,None,,,,,,,,,,,,,,,,,,,,,,,,,,,,,,,,,,,,,,,,,,,,,,,sub-006,001,2025-01-24_14h38.00.100,NESC3137_N400_exp,2023.2.3,126.2779326790458,2025-01-24 14h38.27.266390 -0400,
,,,,,,,,,62,0,62,0,,,,,,,,,,,,,343.3188559,,,,,,,,,,,,,,,343.31481399999984,343.3188559,,343.81861919999983,343.8186452,343.84904259999985,344.3181178666666,345.84105109999973,345.8346126000001,345.83463010000014,346.9587975999998,346.9587975999998,,,,,347.6683299000001,knife,resources/stimuli/knife.wav,right,left,0,705.0162999998975,right,0,0.7050162999998975,None,,,,,,,,,,,,,,,,,,,,,,,,,,,,,,,,,,,,,,,,,,,,,,,sub-006,001,2025-01-24_14h38.00.100,NESC3137_N400_exp,2023.2.3,126.2779326790458,2025-01-24 14h38.27.266390 -0400,
,,,,,,,,,63,0,63,0,,,,,,,,,,,,,347.6738701999998,,,,,,,,,,,,,,,347.6696029,347.6738701999998,348.17474809999976,348.16071509999983,348.16073270000015,348.17474809999976,348.6711850666668,350.16741939999974,350.1607604000001,350.1607749,351.31408509999983,351.31408509999983,,,,,351.8305698999998,carrot,resources/stimuli/carrot.wav,left,left,1,510.2617000002283,left,1,0.5102617000002283,None,,,,,,,,,,,,,,,,,,,,,,,,,,,,,,,,,,,,,,,,,,,,,,,sub-006,001,2025-01-24_14h38.00.100,NESC3137_N400_exp,2023.2.3,126.2779326790458,2025-01-24 14h38.27.266390 -0400,
,,,,,,,,,64,0,64,0,,,,,,,,,,,,,351.84565250000014,,,,,,,,,,,,,,,351.8319240000001,351.84565250000014,352.3626672999999,352.3292504000001,352.32926129999987,352.3626672999999,352.8315432666666,354.3557015000001,354.34979239999984,354.3498178,355.4771145999998,355.4771145999998,,,,,356.1142694,grapes,resources/stimuli/grapes_foil.wav,right,right,1,635.0585999998657,right,1,0.6350585999998657,None,,,,,,,,,,,,,,,,,,,,,,,,,,,,,,,,,,,,,,,,,,,,,,,sub-006,001,2025-01-24_14h38.00.100,NESC3137_N400_exp,2023.2.3,126.2779326790458,2025-01-24 14h38.27.266390 -0400,
,,,,,,,,,65,0,65,0,,,,,,,,,,,,,356.12768909999977,,,,,,,,,,,,,,,356.1156658,356.12768909999977,356.6407168999999,356.61337589999994,356.6133906,356.6407168999999,357.1160196666667,358.6348527,358.6277003,358.6277150000001,359.7592936000001,359.7592936000001,,,,,360.28171220000013,bow,resources/stimuli/bow.wav,left,left,1,521.5806000001066,left,1,0.5215806000001066,None,,,,,,,,,,,,,,,,,,,,,,,,,,,,,,,,,,,,,,,,,,,,,,,sub-006,001,2025-01-24_14h38.00.100,NESC3137_N400_exp,2023.2.3,126.2779326790458,2025-01-24 14h38.27.266390 -0400,
,,,,,,,,,66,0,66,0,,,,,,,,,,,,,360.2938073999999,,,,,,,,,,,,,,,360.28287969999974,360.2938073999999,360.8015427999999,360.7811932999998,360.7812042999999,360.8015427999999,361.2846139666665,362.7951425000001,362.78866430000016,362.7886813,363.92621869999994,363.92621869999994,,,,,364.4414953999999,garbagecan,resources/stimuli/garbagecan.wav,left,left,1,514.3605999996907,left,1,0.5143605999996907,None,,,,,,,,,,,,,,,,,,,,,,,,,,,,,,,,,,,,,,,,,,,,,,,sub-006,001,2025-01-24_14h38.00.100,NESC3137_N400_exp,2023.2.3,126.2779326790458,2025-01-24 14h38.27.266390 -0400,
,,,,,,,,,67,0,67,0,,,,,,,,,,,,,364.4472826000001,,,,,,,,,,,,,,,364.44278810000014,364.4472826000001,364.9643664,364.93708949999973,364.9371013,364.9643664,365.4440153666667,366.9548842999998,366.94841910000014,366.9484306999998,368.08659639999996,368.08659639999996,,,,,368.6939256999999,toothbrush,resources/stimuli/toothbrush.wav,left,left,1,601.3866999996935,left,1,0.6013866999996935,None,,,,,,,,,,,,,,,,,,,,,,,,,,,,,,,,,,,,,,,,,,,,,,,sub-006,001,2025-01-24_14h38.00.100,NESC3137_N400_exp,2023.2.3,126.2779326790458,2025-01-24 14h38.27.266390 -0400,
,,,,,,,,,68,0,68,0,,,,,,,,,,,,,368.70704879999994,,,,,,,,,,,,,,,368.6953488999998,368.70704879999994,,369.19987189999983,369.19988920000014,369.2338758000001,369.69603926666673,371.22635880000007,371.2209401,371.22095609999997,372.34496469999976,372.34496469999976,,,,,372.97818989999996,button,resources/stimuli/button_foil.wav,right,right,1,631.3181000000441,right,1,0.6313181000000441,None,,,,,,,,,,,,,,,,,,,,,,,,,,,,,,,,,,,,,,,,,,,,,,,sub-006,001,2025-01-24_14h38.00.100,NESC3137_N400_exp,2023.2.3,126.2779326790458,2025-01-24 14h38.27.266390 -0400,
,,,,,,,,,69,0,69,0,,,,,,,,,,,,,372.9904314999999,,,,,,,,,,,,,,,372.97948399999996,372.9904314999999,373.5052007999998,373.47722969999995,373.47724000000017,373.5052007999998,373.97982306666677,375.49947029999976,375.4916395,375.4916539000001,376.62271759999976,376.62271759999976,,,,,377.0198995999999,harp,resources/stimuli/harp.wav,left,left,1,393.67010000023583,left,1,0.39367010000023583,None,,,,,,,,,,,,,,,,,,,,,,,,,,,,,,,,,,,,,,,,,,,,,,,sub-006,001,2025-01-24_14h38.00.100,NESC3137_N400_exp,2023.2.3,126.2779326790458,2025-01-24 14h38.27.266390 -0400,
,,,,,,,,,70,0,70,0,,,,,,,,,,,,,377.0256537,,,,,,,,,,,,,,,377.02128919999996,377.0256537,377.5403831999997,377.51284639999994,377.51286070000015,377.5403831999997,378.02154116666657,379.54271900000003,379.5336443000001,379.5336637999999,380.6669901999999,380.6669901999999,,,,,381.2841361999999,dresser,resources/stimuli/dresser.wav,left,left,1,613.8503000001947,left,1,0.6138503000001947,None,,,,,,,,,,,,,,,,,,,,,,,,,,,,,,,,,,,,,,,,,,,,,,,sub-006,001,2025-01-24_14h38.00.100,NESC3137_N400_exp,2023.2.3,126.2779326790458,2025-01-24 14h38.27.266390 -0400,
,,,,,,,,,71,0,71,0,,,,,,,,,,,,,381.29717930000015,,,,,,,,,,,,,,,381.2853768,381.29717930000015,,381.79108499999984,381.7910972999998,381.83075069999995,382.2892012666664,383.8254508,383.8192565999998,383.8192716999997,384.9301221999999,384.9301221999999,,,,,385.54245779999974,crown,resources/stimuli/crown.wav,left,left,1,606.4661000000342,left,1,0.6064661000000342,None,,,,,,,,,,,,,,,,,,,,,,,,,,,,,,,,,,,,,,,,,,,,,,,sub-006,001,2025-01-24_14h38.00.100,NESC3137_N400_exp,2023.2.3,126.2779326790458,2025-01-24 14h38.27.266390 -0400,
,,,,,,,,,72,0,72,0,,,,,,,,,,,,,385.5553184999999,,,,,,,,,,,,,,,385.5436332999998,385.5553184999999,,386.0437419,386.0437641999997,386.0776929999997,386.54394026666637,388.0690844999999,388.06296429999975,388.0629791000001,389.19476239999995,389.19476239999995,,,,,389.7577289999999,heart,resources/stimuli/heart_foil.wav,right,right,1,558.0192999996143,right,1,0.5580192999996143,None,,,,,,,,,,,,,,,,,,,,,,,,,,,,,,,,,,,,,,,,,,,,,,,sub-006,001,2025-01-24_14h38.00.100,NESC3137_N400_exp,2023.2.3,126.2779326790458,2025-01-24 14h38.27.266390 -0400,
,,,,,,,,,73,0,73,0,,,,,,,,,,,,,389.766341,,,,,,,,,,,,,,,389.7589011,389.766341,390.26376660000005,390.2503391,390.25034959999994,390.26376660000005,390.76025176666667,392.2578254,392.24860679999983,392.24862040000016,393.40301,393.40301,,,,,393.8419002999999,doorknob,resources/stimuli/doorknob.wav,left,left,1,437.97219999987647,left,1,0.43797219999987647,None,,,,,,,,,,,,,,,,,,,,,,,,,,,,,,,,,,,,,,,,,,,,,,,sub-006,001,2025-01-24_14h38.00.100,NESC3137_N400_exp,2023.2.3,126.2779326790458,2025-01-24 14h38.27.266390 -0400,
,,,,,,,,,74,0,74,0,,,,,,,,,,,,,393.8545783999998,,,,,,,,,,,,,,,393.84331870000005,393.8545783999998,394.3684174,394.34220460000006,394.34221590000016,394.3684174,394.8510487666665,396.362658,396.3572218999998,396.3572358000001,397.4872826999999,397.4872826999999,,,,,397.8771204999998,cow,resources/stimuli/cow.wav,left,left,1,385.95230000009906,left,1,0.38595230000009906,None,,,,,,,,,,,,,,,,,,,,,,,,,,,,,,,,,,,,,,,,,,,,,,,sub-006,001,2025-01-24_14h38.00.100,NESC3137_N400_exp,2023.2.3,126.2779326790458,2025-01-24 14h38.27.266390 -0400,
,,,,,,,,,75,0,75,0,,,,,,,,,,,,,397.88287379999974,,,,,,,,,,,,,,,397.87839140000006,397.88287379999974,398.3832610999998,398.37000339999986,398.3700165999999,398.3832610999998,398.88175236666643,400.37674800000013,400.3699409999999,400.3699567999997,401.52253299999984,401.52253299999984,,,,,401.8117564999998,squirrel,resources/stimuli/squirrel.wav,left,left,1,286.31300000006377,left,1,0.28631300000006377,None,,,,,,,,,,,,,,,,,,,,,,,,,,,,,,,,,,,,,,,,,,,,,,,sub-006,001,2025-01-24_14h38.00.100,NESC3137_N400_exp,2023.2.3,126.2779326790458,2025-01-24 14h38.27.266390 -0400,
,,,,,,,,,76,0,76,0,,,,,,,,,,,,,401.8265029999998,,,,,,,,,,,,,,,401.81299709999985,401.8265029999998,,402.3149936,402.3150062999998,402.3541213999997,402.81771086666663,404.34968200000003,404.3428762999997,404.34288819999983,405.4611624999998,405.4611624999998,,,,,405.9970469,screwdriver,resources/stimuli/screwdriver_foil.wav,right,right,1,531.6710000001876,right,1,0.5316710000001876,None,,,,,,,,,,,,,,,,,,,,,,,,,,,,,,,,,,,,,,,,,,,,,,,sub-006,001,2025-01-24_14h38.00.100,NESC3137_N400_exp,2023.2.3,126.2779326790458,2025-01-24 14h38.27.266390 -0400,
