Word,setup_loop.thisRepN,setup_loop.thisTrialN,setup_loop.thisN,setup_loop.thisIndex,shuffle_loop.thisRepN,shuffle_loop.thisTrialN,shuffle_loop.thisN,shuffle_loop.thisIndex,trials_2.thisRepN,trials_2.thisTrialN,trials_2.thisN,trials_2.thisIndex,trialsBreak2.thisRepN,trialsBreak2.thisTrialN,trialsBreak2.thisN,trialsBreak2.thisIndex,trials.thisRepN,trials.thisTrialN,trials.thisN,trials.thisIndex,trialsBreak.thisRepN,trialsBreak.thisTrialN,trialsBreak.thisN,trialsBreak.thisIndex,thisRow.t,notes,LSL_Stream.started,LSL_Stream.stopped,setup.started,setup.stopped,shuffle_stimuli.started,shuffle_stimuli.stopped,Instructions1.started,imageInstruct1.started,key_resp_Instruct1.started,Instructions1.stopped,key_resp_Instruct1.keys,key_resp_Instruct1.rt,key_resp_Instruct1.duration,fixation_2.started,cross_2.started,cross_2.stopped,fixation_2.stopped,stimuli_prez_2.started,audioPrez2.started,imagePrez2.started,imagePrez2.stopped,stimuli_prez_2.stopped,response_2.started,image_resp_p2.started,p2_resp_stim.started,response_2.stopped,Image2,Audio2,response_p2,corchoice_p2,Trial_Score_p2,Trial_RT_p2,p2_resp_stim.keys,p2_resp_stim.corr,p2_resp_stim.rt,p2_resp_stim.duration,checkpoint.started,imageBreak.started,imageCont.started,key_break.started,imageBreak.stopped,checkpoint.stopped,key_break.keys,key_break.rt,key_break.duration,Instructions2.started,imageInstruct1_2.started,key_resp_Instruct1_2.started,Instructions2.stopped,key_resp_Instruct1_2.keys,key_resp_Instruct1_2.rt,key_resp_Instruct1_2.duration,fixation.started,cross.started,cross.stopped,fixation.stopped,stimuli_prez_1.started,imagePrez1.started,audioPrez1.started,imagePrez1.stopped,stimuli_prez_1.stopped,response.started,image_resp_p1.started,p1_resp_stim.started,response.stopped,Image,Audio,response_p1,corchoice_p1,Trial_Score_p1,Trial_RT_p1,p1_resp_stim.keys,p1_resp_stim.corr,p1_resp_stim.rt,p1_resp_stim.duration,end.started,endscreen.started,key_resp_end.started,end.stopped,key_resp_end.keys,key_resp_end.rt,key_resp_end.duration,participant,session,date,expName,psychopyVersion,frameRate,expStart,
kite,0,0,0,83,,,,,,,,,,,,,,,,,,,,,0.14134109999940847,,0.033767299999453826,0.03408979999949224,0.044352700000672485,0.04476319999957923,,,,,,,,,,,,,,,,,,,,,,,,,,,,,,,,,,,,,,,,,,,,,,,,,,,,,,,,,,,,,,,,,,,,,,,,,,,,,,,002,001,2025-01-24_13h21.11.909,NESC3137_N400_exp,2023.2.3,59.96800107422217,2025-01-24 13h30.43.273490 -0400,
peach,0,1,1,110,,,,,,,,,,,,,,,,,,,,,0.14134109999940847,,,,0.044885100000101374,0.044996099999480066,,,,,,,,,,,,,,,,,,,,,,,,,,,,,,,,,,,,,,,,,,,,,,,,,,,,,,,,,,,,,,,,,,,,,,,,,,,,,,,002,001,2025-01-24_13h21.11.909,NESC3137_N400_exp,2023.2.3,59.96800107422217,2025-01-24 13h30.43.273490 -0400,
dresser,0,2,2,45,,,,,,,,,,,,,,,,,,,,,0.14134109999940847,,,,0.04507689999991271,0.045150800000556046,,,,,,,,,,,,,,,,,,,,,,,,,,,,,,,,,,,,,,,,,,,,,,,,,,,,,,,,,,,,,,,,,,,,,,,,,,,,,,,002,001,2025-01-24_13h21.11.909,NESC3137_N400_exp,2023.2.3,59.96800107422217,2025-01-24 13h30.43.273490 -0400,
bicycle,0,3,3,16,,,,,,,,,,,,,,,,,,,,,0.14134109999940847,,,,0.04521980000026815,0.04528700000082608,,,,,,,,,,,,,,,,,,,,,,,,,,,,,,,,,,,,,,,,,,,,,,,,,,,,,,,,,,,,,,,,,,,,,,,,,,,,,,,002,001,2025-01-24_13h21.11.909,NESC3137_N400_exp,2023.2.3,59.96800107422217,2025-01-24 13h30.43.273490 -0400,
kangaroo,0,4,4,80,,,,,,,,,,,,,,,,,,,,,0.14134109999940847,,,,0.045349699999860604,0.04542639999999665,,,,,,,,,,,,,,,,,,,,,,,,,,,,,,,,,,,,,,,,,,,,,,,,,,,,,,,,,,,,,,,,,,,,,,,,,,,,,,,002,001,2025-01-24_13h21.11.909,NESC3137_N400_exp,2023.2.3,59.96800107422217,2025-01-24 13h30.43.273490 -0400,
flower,0,5,5,56,,,,,,,,,,,,,,,,,,,,,0.14134109999940847,,,,0.045572000000902335,0.045705000000452856,,,,,,,,,,,,,,,,,,,,,,,,,,,,,,,,,,,,,,,,,,,,,,,,,,,,,,,,,,,,,,,,,,,,,,,,,,,,,,,002,001,2025-01-24_13h21.11.909,NESC3137_N400_exp,2023.2.3,59.96800107422217,2025-01-24 13h30.43.273490 -0400,
hat,0,6,6,74,,,,,,,,,,,,,,,,,,,,,0.14134109999940847,,,,0.045789699999659206,0.045874600000388455,,,,,,,,,,,,,,,,,,,,,,,,,,,,,,,,,,,,,,,,,,,,,,,,,,,,,,,,,,,,,,,,,,,,,,,,,,,,,,,002,001,2025-01-24_13h21.11.909,NESC3137_N400_exp,2023.2.3,59.96800107422217,2025-01-24 13h30.43.273490 -0400,
sled,0,7,7,143,,,,,,,,,,,,,,,,,,,,,0.14134109999940847,,,,0.04594150000048103,0.04601420000108192,,,,,,,,,,,,,,,,,,,,,,,,,,,,,,,,,,,,,,,,,,,,,,,,,,,,,,,,,,,,,,,,,,,,,,,,,,,,,,,002,001,2025-01-24_13h21.11.909,NESC3137_N400_exp,2023.2.3,59.96800107422217,2025-01-24 13h30.43.273490 -0400,
balloon,0,8,8,8,,,,,,,,,,,,,,,,,,,,,0.14134109999940847,,,,0.046078100000158884,0.04614740000033635,,,,,,,,,,,,,,,,,,,,,,,,,,,,,,,,,,,,,,,,,,,,,,,,,,,,,,,,,,,,,,,,,,,,,,,,,,,,,,,002,001,2025-01-24_13h21.11.909,NESC3137_N400_exp,2023.2.3,59.96800107422217,2025-01-24 13h30.43.273490 -0400,
recordplayer,0,9,9,127,,,,,,,,,,,,,,,,,,,,,0.14134109999940847,,,,0.046212999999625026,0.04627910000090196,,,,,,,,,,,,,,,,,,,,,,,,,,,,,,,,,,,,,,,,,,,,,,,,,,,,,,,,,,,,,,,,,,,,,,,,,,,,,,,002,001,2025-01-24_13h21.11.909,NESC3137_N400_exp,2023.2.3,59.96800107422217,2025-01-24 13h30.43.273490 -0400,
lock,0,10,10,96,,,,,,,,,,,,,,,,,,,,,0.14134109999940847,,,,0.046341400000528665,0.0464006000001973,,,,,,,,,,,,,,,,,,,,,,,,,,,,,,,,,,,,,,,,,,,,,,,,,,,,,,,,,,,,,,,,,,,,,,,,,,,,,,,002,001,2025-01-24_13h21.11.909,NESC3137_N400_exp,2023.2.3,59.96800107422217,2025-01-24 13h30.43.273490 -0400,
chain,0,11,11,29,,,,,,,,,,,,,,,,,,,,,0.14134109999940847,,,,0.046460100000331295,0.046520300000338466,,,,,,,,,,,,,,,,,,,,,,,,,,,,,,,,,,,,,,,,,,,,,,,,,,,,,,,,,,,,,,,,,,,,,,,,,,,,,,,002,001,2025-01-24_13h21.11.909,NESC3137_N400_exp,2023.2.3,59.96800107422217,2025-01-24 13h30.43.273490 -0400,
mitten,0,12,12,97,,,,,,,,,,,,,,,,,,,,,0.14134109999940847,,,,0.04657940000106464,0.046639399999548914,,,,,,,,,,,,,,,,,,,,,,,,,,,,,,,,,,,,,,,,,,,,,,,,,,,,,,,,,,,,,,,,,,,,,,,,,,,,,,,002,001,2025-01-24_13h21.11.909,NESC3137_N400_exp,2023.2.3,59.96800107422217,2025-01-24 13h30.43.273490 -0400,
violin,0,13,13,169,,,,,,,,,,,,,,,,,,,,,0.14134109999940847,,,,0.04669830000057118,0.046764700000494486,,,,,,,,,,,,,,,,,,,,,,,,,,,,,,,,,,,,,,,,,,,,,,,,,,,,,,,,,,,,,,,,,,,,,,,,,,,,,,,002,001,2025-01-24_13h21.11.909,NESC3137_N400_exp,2023.2.3,59.96800107422217,2025-01-24 13h30.43.273490 -0400,
pumpkin,0,14,14,128,,,,,,,,,,,,,,,,,,,,,0.14134109999940847,,,,0.0468460000010964,0.04691810000076657,,,,,,,,,,,,,,,,,,,,,,,,,,,,,,,,,,,,,,,,,,,,,,,,,,,,,,,,,,,,,,,,,,,,,,,,,,,,,,,002,001,2025-01-24_13h21.11.909,NESC3137_N400_exp,2023.2.3,59.96800107422217,2025-01-24 13h30.43.273490 -0400,
spider,0,15,15,146,,,,,,,,,,,,,,,,,,,,,0.14134109999940847,,,,0.046980200000689365,0.04704260000107752,,,,,,,,,,,,,,,,,,,,,,,,,,,,,,,,,,,,,,,,,,,,,,,,,,,,,,,,,,,,,,,,,,,,,,,,,,,,,,,002,001,2025-01-24_13h21.11.909,NESC3137_N400_exp,2023.2.3,59.96800107422217,2025-01-24 13h30.43.273490 -0400,
toothbrush,0,16,16,161,,,,,,,,,,,,,,,,,,,,,0.14134109999940847,,,,0.047101500000280794,0.047186100000544684,,,,,,,,,,,,,,,,,,,,,,,,,,,,,,,,,,,,,,,,,,,,,,,,,,,,,,,,,,,,,,,,,,,,,,,,,,,,,,,002,001,2025-01-24_13h21.11.909,NESC3137_N400_exp,2023.2.3,59.96800107422217,2025-01-24 13h30.43.273490 -0400,
cherry,0,17,17,31,,,,,,,,,,,,,,,,,,,,,0.14134109999940847,,,,0.04729340000085358,0.04738510000061069,,,,,,,,,,,,,,,,,,,,,,,,,,,,,,,,,,,,,,,,,,,,,,,,,,,,,,,,,,,,,,,,,,,,,,,,,,,,,,,002,001,2025-01-24_13h21.11.909,NESC3137_N400_exp,2023.2.3,59.96800107422217,2025-01-24 13h30.43.273490 -0400,
garbagecan,0,18,18,60,,,,,,,,,,,,,,,,,,,,,0.14134109999940847,,,,0.04746619999968971,0.04753859999982524,,,,,,,,,,,,,,,,,,,,,,,,,,,,,,,,,,,,,,,,,,,,,,,,,,,,,,,,,,,,,,,,,,,,,,,,,,,,,,,002,001,2025-01-24_13h21.11.909,NESC3137_N400_exp,2023.2.3,59.96800107422217,2025-01-24 13h30.43.273490 -0400,
apple,0,19,19,4,,,,,,,,,,,,,,,,,,,,,0.14134109999940847,,,,0.04761010000038368,0.04775730000073963,,,,,,,,,,,,,,,,,,,,,,,,,,,,,,,,,,,,,,,,,,,,,,,,,,,,,,,,,,,,,,,,,,,,,,,,,,,,,,,002,001,2025-01-24_13h21.11.909,NESC3137_N400_exp,2023.2.3,59.96800107422217,2025-01-24 13h30.43.273490 -0400,
tree,0,20,20,163,,,,,,,,,,,,,,,,,,,,,0.14134109999940847,,,,0.047824999999647844,0.04792780000025232,,,,,,,,,,,,,,,,,,,,,,,,,,,,,,,,,,,,,,,,,,,,,,,,,,,,,,,,,,,,,,,,,,,,,,,,,,,,,,,002,001,2025-01-24_13h21.11.909,NESC3137_N400_exp,2023.2.3,59.96800107422217,2025-01-24 13h30.43.273490 -0400,
window,0,21,21,176,,,,,,,,,,,,,,,,,,,,,0.14134109999940847,,,,0.048001499999372754,0.04808070000035514,,,,,,,,,,,,,,,,,,,,,,,,,,,,,,,,,,,,,,,,,,,,,,,,,,,,,,,,,,,,,,,,,,,,,,,,,,,,,,,002,001,2025-01-24_13h21.11.909,NESC3137_N400_exp,2023.2.3,59.96800107422217,2025-01-24 13h30.43.273490 -0400,
horse,0,22,22,77,,,,,,,,,,,,,,,,,,,,,0.14134109999940847,,,,0.048146099999939906,0.04860440000084054,,,,,,,,,,,,,,,,,,,,,,,,,,,,,,,,,,,,,,,,,,,,,,,,,,,,,,,,,,,,,,,,,,,,,,,,,,,,,,,002,001,2025-01-24_13h21.11.909,NESC3137_N400_exp,2023.2.3,59.96800107422217,2025-01-24 13h30.43.273490 -0400,
lightswitch,0,23,23,92,,,,,,,,,,,,,,,,,,,,,0.14134109999940847,,,,0.04881940000086615,0.04897680000067339,,,,,,,,,,,,,,,,,,,,,,,,,,,,,,,,,,,,,,,,,,,,,,,,,,,,,,,,,,,,,,,,,,,,,,,,,,,,,,,002,001,2025-01-24_13h21.11.909,NESC3137_N400_exp,2023.2.3,59.96800107422217,2025-01-24 13h30.43.273490 -0400,
desk,0,24,24,41,,,,,,,,,,,,,,,,,,,,,0.14134109999940847,,,,0.04909070000030624,0.04920200000015029,,,,,,,,,,,,,,,,,,,,,,,,,,,,,,,,,,,,,,,,,,,,,,,,,,,,,,,,,,,,,,,,,,,,,,,,,,,,,,,002,001,2025-01-24_13h21.11.909,NESC3137_N400_exp,2023.2.3,59.96800107422217,2025-01-24 13h30.43.273490 -0400,
swan,0,25,25,153,,,,,,,,,,,,,,,,,,,,,0.14134109999940847,,,,0.04928560000007565,0.049363600001015584,,,,,,,,,,,,,,,,,,,,,,,,,,,,,,,,,,,,,,,,,,,,,,,,,,,,,,,,,,,,,,,,,,,,,,,,,,,,,,,002,001,2025-01-24_13h21.11.909,NESC3137_N400_exp,2023.2.3,59.96800107422217,2025-01-24 13h30.43.273490 -0400,
airplane,0,26,26,1,,,,,,,,,,,,,,,,,,,,,0.14134109999940847,,,,0.04943649999950139,0.04950710000048275,,,,,,,,,,,,,,,,,,,,,,,,,,,,,,,,,,,,,,,,,,,,,,,,,,,,,,,,,,,,,,,,,,,,,,,,,,,,,,,002,001,2025-01-24_13h21.11.909,NESC3137_N400_exp,2023.2.3,59.96800107422217,2025-01-24 13h30.43.273490 -0400,
pipe,0,27,27,120,,,,,,,,,,,,,,,,,,,,,0.14134109999940847,,,,0.04957560000002559,0.04964120000113326,,,,,,,,,,,,,,,,,,,,,,,,,,,,,,,,,,,,,,,,,,,,,,,,,,,,,,,,,,,,,,,,,,,,,,,,,,,,,,,002,001,2025-01-24_13h21.11.909,NESC3137_N400_exp,2023.2.3,59.96800107422217,2025-01-24 13h30.43.273490 -0400,
suitcase,0,28,28,151,,,,,,,,,,,,,,,,,,,,,0.14134109999940847,,,,0.04970619999949122,0.049777100000937935,,,,,,,,,,,,,,,,,,,,,,,,,,,,,,,,,,,,,,,,,,,,,,,,,,,,,,,,,,,,,,,,,,,,,,,,,,,,,,,002,001,2025-01-24_13h21.11.909,NESC3137_N400_exp,2023.2.3,59.96800107422217,2025-01-24 13h30.43.273490 -0400,
shoe,0,29,29,140,,,,,,,,,,,,,,,,,,,,,0.14134109999940847,,,,0.04984200000035344,0.049907599999642116,,,,,,,,,,,,,,,,,,,,,,,,,,,,,,,,,,,,,,,,,,,,,,,,,,,,,,,,,,,,,,,,,,,,,,,,,,,,,,,002,001,2025-01-24_13h21.11.909,NESC3137_N400_exp,2023.2.3,59.96800107422217,2025-01-24 13h30.43.273490 -0400,
pants,0,30,30,109,,,,,,,,,,,,,,,,,,,,,0.14134109999940847,,,,0.049970399999438087,0.050072300000465475,,,,,,,,,,,,,,,,,,,,,,,,,,,,,,,,,,,,,,,,,,,,,,,,,,,,,,,,,,,,,,,,,,,,,,,,,,,,,,,002,001,2025-01-24_13h21.11.909,NESC3137_N400_exp,2023.2.3,59.96800107422217,2025-01-24 13h30.43.273490 -0400,
carrot,0,31,31,27,,,,,,,,,,,,,,,,,,,,,0.14134109999940847,,,,0.050166999999419204,0.050280100000236416,,,,,,,,,,,,,,,,,,,,,,,,,,,,,,,,,,,,,,,,,,,,,,,,,,,,,,,,,,,,,,,,,,,,,,,,,,,,,,,002,001,2025-01-24_13h21.11.909,NESC3137_N400_exp,2023.2.3,59.96800107422217,2025-01-24 13h30.43.273490 -0400,
eagle,0,32,32,48,,,,,,,,,,,,,,,,,,,,,0.14134109999940847,,,,0.05038009999952919,0.050468800000089686,,,,,,,,,,,,,,,,,,,,,,,,,,,,,,,,,,,,,,,,,,,,,,,,,,,,,,,,,,,,,,,,,,,,,,,,,,,,,,,002,001,2025-01-24_13h21.11.909,NESC3137_N400_exp,2023.2.3,59.96800107422217,2025-01-24 13h30.43.273490 -0400,
helicopter,0,33,33,76,,,,,,,,,,,,,,,,,,,,,0.14134109999940847,,,,0.05054460000064864,0.05069480000020121,,,,,,,,,,,,,,,,,,,,,,,,,,,,,,,,,,,,,,,,,,,,,,,,,,,,,,,,,,,,,,,,,,,,,,,,,,,,,,,002,001,2025-01-24_13h21.11.909,NESC3137_N400_exp,2023.2.3,59.96800107422217,2025-01-24 13h30.43.273490 -0400,
babycarriage,0,34,34,7,,,,,,,,,,,,,,,,,,,,,0.14134109999940847,,,,0.05076519999965967,0.05087889999958861,,,,,,,,,,,,,,,,,,,,,,,,,,,,,,,,,,,,,,,,,,,,,,,,,,,,,,,,,,,,,,,,,,,,,,,,,,,,,,,002,001,2025-01-24_13h21.11.909,NESC3137_N400_exp,2023.2.3,59.96800107422217,2025-01-24 13h30.43.273490 -0400,
clown,0,35,35,36,,,,,,,,,,,,,,,,,,,,,0.14134109999940847,,,,0.050948500000231434,0.051061699999991106,,,,,,,,,,,,,,,,,,,,,,,,,,,,,,,,,,,,,,,,,,,,,,,,,,,,,,,,,,,,,,,,,,,,,,,,,,,,,,,002,001,2025-01-24_13h21.11.909,NESC3137_N400_exp,2023.2.3,59.96800107422217,2025-01-24 13h30.43.273490 -0400,
bear,0,36,36,12,,,,,,,,,,,,,,,,,,,,,0.14134109999940847,,,,0.05119200000081037,0.051320500000656466,,,,,,,,,,,,,,,,,,,,,,,,,,,,,,,,,,,,,,,,,,,,,,,,,,,,,,,,,,,,,,,,,,,,,,,,,,,,,,,002,001,2025-01-24_13h21.11.909,NESC3137_N400_exp,2023.2.3,59.96800107422217,2025-01-24 13h30.43.273490 -0400,
duck,0,37,37,47,,,,,,,,,,,,,,,,,,,,,0.14134109999940847,,,,0.05142040000100678,0.05154640000000654,,,,,,,,,,,,,,,,,,,,,,,,,,,,,,,,,,,,,,,,,,,,,,,,,,,,,,,,,,,,,,,,,,,,,,,,,,,,,,,002,001,2025-01-24_13h21.11.909,NESC3137_N400_exp,2023.2.3,59.96800107422217,2025-01-24 13h30.43.273490 -0400,
bread,0,38,38,20,,,,,,,,,,,,,,,,,,,,,0.14134109999940847,,,,0.05167480000091018,0.051821900000504684,,,,,,,,,,,,,,,,,,,,,,,,,,,,,,,,,,,,,,,,,,,,,,,,,,,,,,,,,,,,,,,,,,,,,,,,,,,,,,,002,001,2025-01-24_13h21.11.909,NESC3137_N400_exp,2023.2.3,59.96800107422217,2025-01-24 13h30.43.273490 -0400,
snail,0,39,39,144,,,,,,,,,,,,,,,,,,,,,0.14134109999940847,,,,0.05194320000009611,0.05207660000087344,,,,,,,,,,,,,,,,,,,,,,,,,,,,,,,,,,,,,,,,,,,,,,,,,,,,,,,,,,,,,,,,,,,,,,,,,,,,,,,002,001,2025-01-24_13h21.11.909,NESC3137_N400_exp,2023.2.3,59.96800107422217,2025-01-24 13h30.43.273490 -0400,
bow,0,40,40,19,,,,,,,,,,,,,,,,,,,,,0.14134109999940847,,,,0.05220809999991616,0.05233749999933934,,,,,,,,,,,,,,,,,,,,,,,,,,,,,,,,,,,,,,,,,,,,,,,,,,,,,,,,,,,,,,,,,,,,,,,,,,,,,,,002,001,2025-01-24_13h21.11.909,NESC3137_N400_exp,2023.2.3,59.96800107422217,2025-01-24 13h30.43.273490 -0400,
butterfly,0,41,41,21,,,,,,,,,,,,,,,,,,,,,0.14134109999940847,,,,0.05247890000100597,0.05262650000076974,,,,,,,,,,,,,,,,,,,,,,,,,,,,,,,,,,,,,,,,,,,,,,,,,,,,,,,,,,,,,,,,,,,,,,,,,,,,,,,002,001,2025-01-24_13h21.11.909,NESC3137_N400_exp,2023.2.3,59.96800107422217,2025-01-24 13h30.43.273490 -0400,
paintbrush,0,42,42,108,,,,,,,,,,,,,,,,,,,,,0.14134109999940847,,,,0.05273710000074061,0.052953700000216486,,,,,,,,,,,,,,,,,,,,,,,,,,,,,,,,,,,,,,,,,,,,,,,,,,,,,,,,,,,,,,,,,,,,,,,,,,,,,,,002,001,2025-01-24_13h21.11.909,NESC3137_N400_exp,2023.2.3,59.96800107422217,2025-01-24 13h30.43.273490 -0400,
peanut,0,43,43,113,,,,,,,,,,,,,,,,,,,,,0.14134109999940847,,,,0.053096699999514385,0.05326960000093095,,,,,,,,,,,,,,,,,,,,,,,,,,,,,,,,,,,,,,,,,,,,,,,,,,,,,,,,,,,,,,,,,,,,,,,,,,,,,,,002,001,2025-01-24_13h21.11.909,NESC3137_N400_exp,2023.2.3,59.96800107422217,2025-01-24 13h30.43.273490 -0400,
clock,0,44,44,34,,,,,,,,,,,,,,,,,,,,,0.14134109999940847,,,,0.053394300000945805,0.05352370000036899,,,,,,,,,,,,,,,,,,,,,,,,,,,,,,,,,,,,,,,,,,,,,,,,,,,,,,,,,,,,,,,,,,,,,,,,,,,,,,,002,001,2025-01-24_13h21.11.909,NESC3137_N400_exp,2023.2.3,59.96800107422217,2025-01-24 13h30.43.273490 -0400,
mountain,0,45,45,100,,,,,,,,,,,,,,,,,,,,,0.14134109999940847,,,,0.0536539000004268,0.05377840000073775,,,,,,,,,,,,,,,,,,,,,,,,,,,,,,,,,,,,,,,,,,,,,,,,,,,,,,,,,,,,,,,,,,,,,,,,,,,,,,,002,001,2025-01-24_13h21.11.909,NESC3137_N400_exp,2023.2.3,59.96800107422217,2025-01-24 13h30.43.273490 -0400,
pear,0,46,46,114,,,,,,,,,,,,,,,,,,,,,0.14134109999940847,,,,0.053900099999736995,0.05403459999979532,,,,,,,,,,,,,,,,,,,,,,,,,,,,,,,,,,,,,,,,,,,,,,,,,,,,,,,,,,,,,,,,,,,,,,,,,,,,,,,002,001,2025-01-24_13h21.11.909,NESC3137_N400_exp,2023.2.3,59.96800107422217,2025-01-24 13h30.43.273490 -0400,
lemon,0,47,47,89,,,,,,,,,,,,,,,,,,,,,0.14134109999940847,,,,0.054149100000358885,0.05434330000025511,,,,,,,,,,,,,,,,,,,,,,,,,,,,,,,,,,,,,,,,,,,,,,,,,,,,,,,,,,,,,,,,,,,,,,,,,,,,,,,002,001,2025-01-24_13h21.11.909,NESC3137_N400_exp,2023.2.3,59.96800107422217,2025-01-24 13h30.43.273490 -0400,
orange,0,48,48,105,,,,,,,,,,,,,,,,,,,,,0.14134109999940847,,,,0.05445839999993041,0.054560399999900255,,,,,,,,,,,,,,,,,,,,,,,,,,,,,,,,,,,,,,,,,,,,,,,,,,,,,,,,,,,,,,,,,,,,,,,,,,,,,,,002,001,2025-01-24_13h21.11.909,NESC3137_N400_exp,2023.2.3,59.96800107422217,2025-01-24 13h30.43.273490 -0400,
fence,0,49,49,53,,,,,,,,,,,,,,,,,,,,,0.14134109999940847,,,,0.05463679999957094,0.054712900000595255,,,,,,,,,,,,,,,,,,,,,,,,,,,,,,,,,,,,,,,,,,,,,,,,,,,,,,,,,,,,,,,,,,,,,,,,,,,,,,,002,001,2025-01-24_13h21.11.909,NESC3137_N400_exp,2023.2.3,59.96800107422217,2025-01-24 13h30.43.273490 -0400,
accordion,0,50,50,0,,,,,,,,,,,,,,,,,,,,,0.14134109999940847,,,,0.05478179999954591,0.054868100000021514,,,,,,,,,,,,,,,,,,,,,,,,,,,,,,,,,,,,,,,,,,,,,,,,,,,,,,,,,,,,,,,,,,,,,,,,,,,,,,,002,001,2025-01-24_13h21.11.909,NESC3137_N400_exp,2023.2.3,59.96800107422217,2025-01-24 13h30.43.273490 -0400,
candle,0,51,51,25,,,,,,,,,,,,,,,,,,,,,0.14134109999940847,,,,0.05493380000007164,0.05500620000020717,,,,,,,,,,,,,,,,,,,,,,,,,,,,,,,,,,,,,,,,,,,,,,,,,,,,,,,,,,,,,,,,,,,,,,,,,,,,,,,002,001,2025-01-24_13h21.11.909,NESC3137_N400_exp,2023.2.3,59.96800107422217,2025-01-24 13h30.43.273490 -0400,
hammer,0,52,52,70,,,,,,,,,,,,,,,,,,,,,0.14134109999940847,,,,0.05507010000110313,0.055138699999588425,,,,,,,,,,,,,,,,,,,,,,,,,,,,,,,,,,,,,,,,,,,,,,,,,,,,,,,,,,,,,,,,,,,,,,,,,,,,,,,002,001,2025-01-24_13h21.11.909,NESC3137_N400_exp,2023.2.3,59.96800107422217,2025-01-24 13h30.43.273490 -0400,
rooster,0,53,53,131,,,,,,,,,,,,,,,,,,,,,0.14134109999940847,,,,0.05520579999938491,0.05534850000003644,,,,,,,,,,,,,,,,,,,,,,,,,,,,,,,,,,,,,,,,,,,,,,,,,,,,,,,,,,,,,,,,,,,,,,,,,,,,,,,002,001,2025-01-24_13h21.11.909,NESC3137_N400_exp,2023.2.3,59.96800107422217,2025-01-24 13h30.43.273490 -0400,
penguin,0,54,54,116,,,,,,,,,,,,,,,,,,,,,0.14134109999940847,,,,0.05541740000080608,0.05551550000018324,,,,,,,,,,,,,,,,,,,,,,,,,,,,,,,,,,,,,,,,,,,,,,,,,,,,,,,,,,,,,,,,,,,,,,,,,,,,,,,002,001,2025-01-24_13h21.11.909,NESC3137_N400_exp,2023.2.3,59.96800107422217,2025-01-24 13h30.43.273490 -0400,
elephant,0,55,55,49,,,,,,,,,,,,,,,,,,,,,0.14134109999940847,,,,0.05562389999977313,0.05578059999970719,,,,,,,,,,,,,,,,,,,,,,,,,,,,,,,,,,,,,,,,,,,,,,,,,,,,,,,,,,,,,,,,,,,,,,,,,,,,,,,002,001,2025-01-24_13h21.11.909,NESC3137_N400_exp,2023.2.3,59.96800107422217,2025-01-24 13h30.43.273490 -0400,
watermelon,0,56,56,171,,,,,,,,,,,,,,,,,,,,,0.14134109999940847,,,,0.0559069000009913,0.056033900000329595,,,,,,,,,,,,,,,,,,,,,,,,,,,,,,,,,,,,,,,,,,,,,,,,,,,,,,,,,,,,,,,,,,,,,,,,,,,,,,,002,001,2025-01-24_13h21.11.909,NESC3137_N400_exp,2023.2.3,59.96800107422217,2025-01-24 13h30.43.273490 -0400,
lion,0,57,57,93,,,,,,,,,,,,,,,,,,,,,0.14134109999940847,,,,0.056125600000086706,0.0562487000006513,,,,,,,,,,,,,,,,,,,,,,,,,,,,,,,,,,,,,,,,,,,,,,,,,,,,,,,,,,,,,,,,,,,,,,,,,,,,,,,002,001,2025-01-24_13h21.11.909,NESC3137_N400_exp,2023.2.3,59.96800107422217,2025-01-24 13h30.43.273490 -0400,
pencil,0,58,58,115,,,,,,,,,,,,,,,,,,,,,0.14134109999940847,,,,0.05636500000036904,0.05649290000110341,,,,,,,,,,,,,,,,,,,,,,,,,,,,,,,,,,,,,,,,,,,,,,,,,,,,,,,,,,,,,,,,,,,,,,,,,,,,,,,002,001,2025-01-24_13h21.11.909,NESC3137_N400_exp,2023.2.3,59.96800107422217,2025-01-24 13h30.43.273490 -0400,
rollingpin,0,59,59,130,,,,,,,,,,,,,,,,,,,,,0.14134109999940847,,,,0.05658260000018345,0.05669990000023972,,,,,,,,,,,,,,,,,,,,,,,,,,,,,,,,,,,,,,,,,,,,,,,,,,,,,,,,,,,,,,,,,,,,,,,,,,,,,,,002,001,2025-01-24_13h21.11.909,NESC3137_N400_exp,2023.2.3,59.96800107422217,2025-01-24 13h30.43.273490 -0400,
necklace,0,60,60,103,,,,,,,,,,,,,,,,,,,,,0.14134109999940847,,,,0.05677570000079868,0.05689320000055886,,,,,,,,,,,,,,,,,,,,,,,,,,,,,,,,,,,,,,,,,,,,,,,,,,,,,,,,,,,,,,,,,,,,,,,,,,,,,,,002,001,2025-01-24_13h21.11.909,NESC3137_N400_exp,2023.2.3,59.96800107422217,2025-01-24 13h30.43.273490 -0400,
lamp,0,61,61,86,,,,,,,,,,,,,,,,,,,,,0.14134109999940847,,,,0.05701330000010785,0.05713330000071437,,,,,,,,,,,,,,,,,,,,,,,,,,,,,,,,,,,,,,,,,,,,,,,,,,,,,,,,,,,,,,,,,,,,,,,,,,,,,,,002,001,2025-01-24_13h21.11.909,NESC3137_N400_exp,2023.2.3,59.96800107422217,2025-01-24 13h30.43.273490 -0400,
deer,0,62,62,40,,,,,,,,,,,,,,,,,,,,,0.14134109999940847,,,,0.05722779999996419,0.05733859999963897,,,,,,,,,,,,,,,,,,,,,,,,,,,,,,,,,,,,,,,,,,,,,,,,,,,,,,,,,,,,,,,,,,,,,,,,,,,,,,,002,001,2025-01-24_13h21.11.909,NESC3137_N400_exp,2023.2.3,59.96800107422217,2025-01-24 13h30.43.273490 -0400,
screwdriver,0,63,63,136,,,,,,,,,,,,,,,,,,,,,0.14134109999940847,,,,0.057449199999609846,0.05755929999941145,,,,,,,,,,,,,,,,,,,,,,,,,,,,,,,,,,,,,,,,,,,,,,,,,,,,,,,,,,,,,,,,,,,,,,,,,,,,,,,002,001,2025-01-24_13h21.11.909,NESC3137_N400_exp,2023.2.3,59.96800107422217,2025-01-24 13h30.43.273490 -0400,
harp,0,64,64,73,,,,,,,,,,,,,,,,,,,,,0.14134109999940847,,,,0.057640799999717274,0.057722499999727006,,,,,,,,,,,,,,,,,,,,,,,,,,,,,,,,,,,,,,,,,,,,,,,,,,,,,,,,,,,,,,,,,,,,,,,,,,,,,,,002,001,2025-01-24_13h21.11.909,NESC3137_N400_exp,2023.2.3,59.96800107422217,2025-01-24 13h30.43.273490 -0400,
skunk,0,65,65,142,,,,,,,,,,,,,,,,,,,,,0.14134109999940847,,,,0.057797600000412785,0.057870300001013675,,,,,,,,,,,,,,,,,,,,,,,,,,,,,,,,,,,,,,,,,,,,,,,,,,,,,,,,,,,,,,,,,,,,,,,,,,,,,,,002,001,2025-01-24_13h21.11.909,NESC3137_N400_exp,2023.2.3,59.96800107422217,2025-01-24 13h30.43.273490 -0400,
arm,0,66,66,5,,,,,,,,,,,,,,,,,,,,,0.14134109999940847,,,,0.05793620000076771,0.058003399999506655,,,,,,,,,,,,,,,,,,,,,,,,,,,,,,,,,,,,,,,,,,,,,,,,,,,,,,,,,,,,,,,,,,,,,,,,,,,,,,,002,001,2025-01-24_13h21.11.909,NESC3137_N400_exp,2023.2.3,59.96800107422217,2025-01-24 13h30.43.273490 -0400,
skirt,0,67,67,141,,,,,,,,,,,,,,,,,,,,,0.14134109999940847,,,,0.05806549999942945,0.058134599999903,,,,,,,,,,,,,,,,,,,,,,,,,,,,,,,,,,,,,,,,,,,,,,,,,,,,,,,,,,,,,,,,,,,,,,,,,,,,,,,002,001,2025-01-24_13h21.11.909,NESC3137_N400_exp,2023.2.3,59.96800107422217,2025-01-24 13h30.43.273490 -0400,
cat,0,68,68,28,,,,,,,,,,,,,,,,,,,,,0.14134109999940847,,,,0.05819530000007944,0.05827250000038475,,,,,,,,,,,,,,,,,,,,,,,,,,,,,,,,,,,,,,,,,,,,,,,,,,,,,,,,,,,,,,,,,,,,,,,,,,,,,,,002,001,2025-01-24_13h21.11.909,NESC3137_N400_exp,2023.2.3,59.96800107422217,2025-01-24 13h30.43.273490 -0400,
windmill,0,69,69,175,,,,,,,,,,,,,,,,,,,,,0.14134109999940847,,,,0.05833320000056119,0.05840069999976549,,,,,,,,,,,,,,,,,,,,,,,,,,,,,,,,,,,,,,,,,,,,,,,,,,,,,,,,,,,,,,,,,,,,,,,,,,,,,,,002,001,2025-01-24_13h21.11.909,NESC3137_N400_exp,2023.2.3,59.96800107422217,2025-01-24 13h30.43.273490 -0400,
sheep,0,70,70,139,,,,,,,,,,,,,,,,,,,,,0.14134109999940847,,,,0.058463499999561463,0.058533400000669644,,,,,,,,,,,,,,,,,,,,,,,,,,,,,,,,,,,,,,,,,,,,,,,,,,,,,,,,,,,,,,,,,,,,,,,,,,,,,,,002,001,2025-01-24_13h21.11.909,NESC3137_N400_exp,2023.2.3,59.96800107422217,2025-01-24 13h30.43.273490 -0400,
tiger,0,71,71,159,,,,,,,,,,,,,,,,,,,,,0.14134109999940847,,,,0.05860130000110075,0.05867020000005141,,,,,,,,,,,,,,,,,,,,,,,,,,,,,,,,,,,,,,,,,,,,,,,,,,,,,,,,,,,,,,,,,,,,,,,,,,,,,,,002,001,2025-01-24_13h21.11.909,NESC3137_N400_exp,2023.2.3,59.96800107422217,2025-01-24 13h30.43.273490 -0400,
gun,0,72,72,68,,,,,,,,,,,,,,,,,,,,,0.14134109999940847,,,,0.058736400000270805,0.058840800000325544,,,,,,,,,,,,,,,,,,,,,,,,,,,,,,,,,,,,,,,,,,,,,,,,,,,,,,,,,,,,,,,,,,,,,,,,,,,,,,,002,001,2025-01-24_13h21.11.909,NESC3137_N400_exp,2023.2.3,59.96800107422217,2025-01-24 13h30.43.273490 -0400,
cloud,0,73,73,35,,,,,,,,,,,,,,,,,,,,,0.14134109999940847,,,,0.0589070999994874,0.0589892999996664,,,,,,,,,,,,,,,,,,,,,,,,,,,,,,,,,,,,,,,,,,,,,,,,,,,,,,,,,,,,,,,,,,,,,,,,,,,,,,,002,001,2025-01-24_13h21.11.909,NESC3137_N400_exp,2023.2.3,59.96800107422217,2025-01-24 13h30.43.273490 -0400,
onion,0,74,74,104,,,,,,,,,,,,,,,,,,,,,0.14134109999940847,,,,0.05906020000111312,0.059150099999897066,,,,,,,,,,,,,,,,,,,,,,,,,,,,,,,,,,,,,,,,,,,,,,,,,,,,,,,,,,,,,,,,,,,,,,,,,,,,,,,002,001,2025-01-24_13h21.11.909,NESC3137_N400_exp,2023.2.3,59.96800107422217,2025-01-24 13h30.43.273490 -0400,
hand,0,75,75,71,,,,,,,,,,,,,,,,,,,,,0.14134109999940847,,,,0.059227900001133094,0.05934530000013183,,,,,,,,,,,,,,,,,,,,,,,,,,,,,,,,,,,,,,,,,,,,,,,,,,,,,,,,,,,,,,,,,,,,,,,,,,,,,,,002,001,2025-01-24_13h21.11.909,NESC3137_N400_exp,2023.2.3,59.96800107422217,2025-01-24 13h30.43.273490 -0400,
snake,0,76,76,154,,,,,,,,,,,,,,,,,,,,,0.14134109999940847,,,,0.05941960000018298,0.05952369999977236,,,,,,,,,,,,,,,,,,,,,,,,,,,,,,,,,,,,,,,,,,,,,,,,,,,,,,,,,,,,,,,,,,,,,,,,,,,,,,,002,001,2025-01-24_13h21.11.909,NESC3137_N400_exp,2023.2.3,59.96800107422217,2025-01-24 13h30.43.273490 -0400,
trafficlight,0,77,77,162,,,,,,,,,,,,,,,,,,,,,0.14134109999940847,,,,0.05960860000050161,0.059716199999456876,,,,,,,,,,,,,,,,,,,,,,,,,,,,,,,,,,,,,,,,,,,,,,,,,,,,,,,,,,,,,,,,,,,,,,,,,,,,,,,002,001,2025-01-24_13h21.11.909,NESC3137_N400_exp,2023.2.3,59.96800107422217,2025-01-24 13h30.43.273490 -0400,
nail,0,78,78,102,,,,,,,,,,,,,,,,,,,,,0.14134109999940847,,,,0.059781899999507004,0.05987740000091435,,,,,,,,,,,,,,,,,,,,,,,,,,,,,,,,,,,,,,,,,,,,,,,,,,,,,,,,,,,,,,,,,,,,,,,,,,,,,,,002,001,2025-01-24_13h21.11.909,NESC3137_N400_exp,2023.2.3,59.96800107422217,2025-01-24 13h30.43.273490 -0400,
turtle,0,79,79,165,,,,,,,,,,,,,,,,,,,,,0.14134109999940847,,,,0.05994060000011814,0.0600458000008075,,,,,,,,,,,,,,,,,,,,,,,,,,,,,,,,,,,,,,,,,,,,,,,,,,,,,,,,,,,,,,,,,,,,,,,,,,,,,,,002,001,2025-01-24_13h21.11.909,NESC3137_N400_exp,2023.2.3,59.96800107422217,2025-01-24 13h30.43.273490 -0400,
wrench,0,80,80,178,,,,,,,,,,,,,,,,,,,,,0.14134109999940847,,,,0.06017179999980726,0.0603372000005038,,,,,,,,,,,,,,,,,,,,,,,,,,,,,,,,,,,,,,,,,,,,,,,,,,,,,,,,,,,,,,,,,,,,,,,,,,,,,,,002,001,2025-01-24_13h21.11.909,NESC3137_N400_exp,2023.2.3,59.96800107422217,2025-01-24 13h30.43.273490 -0400,
fryingpan,0,81,81,59,,,,,,,,,,,,,,,,,,,,,0.14134109999940847,,,,0.06045989999984158,0.06058180000036373,,,,,,,,,,,,,,,,,,,,,,,,,,,,,,,,,,,,,,,,,,,,,,,,,,,,,,,,,,,,,,,,,,,,,,,,,,,,,,,002,001,2025-01-24_13h21.11.909,NESC3137_N400_exp,2023.2.3,59.96800107422217,2025-01-24 13h30.43.273490 -0400,
sun,0,82,82,152,,,,,,,,,,,,,,,,,,,,,0.14134109999940847,,,,0.06067600000096718,0.06079850000060105,,,,,,,,,,,,,,,,,,,,,,,,,,,,,,,,,,,,,,,,,,,,,,,,,,,,,,,,,,,,,,,,,,,,,,,,,,,,,,,002,001,2025-01-24_13h21.11.909,NESC3137_N400_exp,2023.2.3,59.96800107422217,2025-01-24 13h30.43.273490 -0400,
peacock,0,83,83,112,,,,,,,,,,,,,,,,,,,,,0.14134109999940847,,,,0.060894500000358676,0.06099340000037046,,,,,,,,,,,,,,,,,,,,,,,,,,,,,,,,,,,,,,,,,,,,,,,,,,,,,,,,,,,,,,,,,,,,,,,,,,,,,,,002,001,2025-01-24_13h21.11.909,NESC3137_N400_exp,2023.2.3,59.96800107422217,2025-01-24 13h30.43.273490 -0400,
glasses,0,84,84,62,,,,,,,,,,,,,,,,,,,,,0.14134109999940847,,,,0.06109629999991739,0.06122049999976298,,,,,,,,,,,,,,,,,,,,,,,,,,,,,,,,,,,,,,,,,,,,,,,,,,,,,,,,,,,,,,,,,,,,,,,,,,,,,,,002,001,2025-01-24_13h21.11.909,NESC3137_N400_exp,2023.2.3,59.96800107422217,2025-01-24 13h30.43.273490 -0400,
fox,0,85,85,57,,,,,,,,,,,,,,,,,,,,,0.14134109999940847,,,,0.061320299999351846,0.06146939999962342,,,,,,,,,,,,,,,,,,,,,,,,,,,,,,,,,,,,,,,,,,,,,,,,,,,,,,,,,,,,,,,,,,,,,,,,,,,,,,,002,001,2025-01-24_13h21.11.909,NESC3137_N400_exp,2023.2.3,59.96800107422217,2025-01-24 13h30.43.273490 -0400,
tennisracket,0,86,86,157,,,,,,,,,,,,,,,,,,,,,0.14134109999940847,,,,0.06161369999972521,0.06175509999957285,,,,,,,,,,,,,,,,,,,,,,,,,,,,,,,,,,,,,,,,,,,,,,,,,,,,,,,,,,,,,,,,,,,,,,,,,,,,,,,002,001,2025-01-24_13h21.11.909,NESC3137_N400_exp,2023.2.3,59.96800107422217,2025-01-24 13h30.43.273490 -0400,
church,0,87,87,32,,,,,,,,,,,,,,,,,,,,,0.14134109999940847,,,,0.061862200000177836,0.06200619999981427,,,,,,,,,,,,,,,,,,,,,,,,,,,,,,,,,,,,,,,,,,,,,,,,,,,,,,,,,,,,,,,,,,,,,,,,,,,,,,,002,001,2025-01-24_13h21.11.909,NESC3137_N400_exp,2023.2.3,59.96800107422217,2025-01-24 13h30.43.273490 -0400,
stove,0,88,88,149,,,,,,,,,,,,,,,,,,,,,0.14134109999940847,,,,0.062150100000508246,0.06231079999997746,,,,,,,,,,,,,,,,,,,,,,,,,,,,,,,,,,,,,,,,,,,,,,,,,,,,,,,,,,,,,,,,,,,,,,,,,,,,,,,002,001,2025-01-24_13h21.11.909,NESC3137_N400_exp,2023.2.3,59.96800107422217,2025-01-24 13h30.43.273490 -0400,
thimble,0,89,89,158,,,,,,,,,,,,,,,,,,,,,0.14134109999940847,,,,0.06245459999990999,0.0626869000006991,,,,,,,,,,,,,,,,,,,,,,,,,,,,,,,,,,,,,,,,,,,,,,,,,,,,,,,,,,,,,,,,,,,,,,,,,,,,,,,002,001,2025-01-24_13h21.11.909,NESC3137_N400_exp,2023.2.3,59.96800107422217,2025-01-24 13h30.43.273490 -0400,
dog,0,90,90,42,,,,,,,,,,,,,,,,,,,,,0.14134109999940847,,,,0.06280019999940123,0.06297110000014072,,,,,,,,,,,,,,,,,,,,,,,,,,,,,,,,,,,,,,,,,,,,,,,,,,,,,,,,,,,,,,,,,,,,,,,,,,,,,,,002,001,2025-01-24_13h21.11.909,NESC3137_N400_exp,2023.2.3,59.96800107422217,2025-01-24 13h30.43.273490 -0400,
vase,0,91,91,167,,,,,,,,,,,,,,,,,,,,,0.14134109999940847,,,,0.06309270000019751,0.06323580000025686,,,,,,,,,,,,,,,,,,,,,,,,,,,,,,,,,,,,,,,,,,,,,,,,,,,,,,,,,,,,,,,,,,,,,,,,,,,,,,,002,001,2025-01-24_13h21.11.909,NESC3137_N400_exp,2023.2.3,59.96800107422217,2025-01-24 13h30.43.273490 -0400,
plug,0,92,92,122,,,,,,,,,,,,,,,,,,,,,0.14134109999940847,,,,0.06332990000009886,0.06345189999956347,,,,,,,,,,,,,,,,,,,,,,,,,,,,,,,,,,,,,,,,,,,,,,,,,,,,,,,,,,,,,,,,,,,,,,,,,,,,,,,002,001,2025-01-24_13h21.11.909,NESC3137_N400_exp,2023.2.3,59.96800107422217,2025-01-24 13h30.43.273490 -0400,
heart,0,93,93,75,,,,,,,,,,,,,,,,,,,,,0.14134109999940847,,,,0.06352719999995315,0.0636290000002191,,,,,,,,,,,,,,,,,,,,,,,,,,,,,,,,,,,,,,,,,,,,,,,,,,,,,,,,,,,,,,,,,,,,,,,,,,,,,,,002,001,2025-01-24_13h21.11.909,NESC3137_N400_exp,2023.2.3,59.96800107422217,2025-01-24 13h30.43.273490 -0400,
alligator,0,94,94,2,,,,,,,,,,,,,,,,,,,,,0.14134109999940847,,,,0.06369839999933902,0.06378220000078727,,,,,,,,,,,,,,,,,,,,,,,,,,,,,,,,,,,,,,,,,,,,,,,,,,,,,,,,,,,,,,,,,,,,,,,,,,,,,,,002,001,2025-01-24_13h21.11.909,NESC3137_N400_exp,2023.2.3,59.96800107422217,2025-01-24 13h30.43.273490 -0400,
sandwich,0,95,95,134,,,,,,,,,,,,,,,,,,,,,0.14134109999940847,,,,0.06385039999986475,0.06396690000110539,,,,,,,,,,,,,,,,,,,,,,,,,,,,,,,,,,,,,,,,,,,,,,,,,,,,,,,,,,,,,,,,,,,,,,,,,,,,,,,002,001,2025-01-24_13h21.11.909,NESC3137_N400_exp,2023.2.3,59.96800107422217,2025-01-24 13h30.43.273490 -0400,
flag,0,96,96,55,,,,,,,,,,,,,,,,,,,,,0.14134109999940847,,,,0.06407129999934114,0.06419289999939792,,,,,,,,,,,,,,,,,,,,,,,,,,,,,,,,,,,,,,,,,,,,,,,,,,,,,,,,,,,,,,,,,,,,,,,,,,,,,,,002,001,2025-01-24_13h21.11.909,NESC3137_N400_exp,2023.2.3,59.96800107422217,2025-01-24 13h30.43.273490 -0400,
giraffe,0,97,97,61,,,,,,,,,,,,,,,,,,,,,0.14134109999940847,,,,0.06429750000097556,0.06440400000064983,,,,,,,,,,,,,,,,,,,,,,,,,,,,,,,,,,,,,,,,,,,,,,,,,,,,,,,,,,,,,,,,,,,,,,,,,,,,,,,002,001,2025-01-24_13h21.11.909,NESC3137_N400_exp,2023.2.3,59.96800107422217,2025-01-24 13h30.43.273490 -0400,
belt,0,98,98,15,,,,,,,,,,,,,,,,,,,,,0.14134109999940847,,,,0.0645409999997355,0.06468350000068313,,,,,,,,,,,,,,,,,,,,,,,,,,,,,,,,,,,,,,,,,,,,,,,,,,,,,,,,,,,,,,,,,,,,,,,,,,,,,,,002,001,2025-01-24_13h21.11.909,NESC3137_N400_exp,2023.2.3,59.96800107422217,2025-01-24 13h30.43.273490 -0400,
potato,0,99,99,124,,,,,,,,,,,,,,,,,,,,,0.14134109999940847,,,,0.06481410000014876,0.06495119999999588,,,,,,,,,,,,,,,,,,,,,,,,,,,,,,,,,,,,,,,,,,,,,,,,,,,,,,,,,,,,,,,,,,,,,,,,,,,,,,,002,001,2025-01-24_13h21.11.909,NESC3137_N400_exp,2023.2.3,59.96800107422217,2025-01-24 13h30.43.273490 -0400,
book,0,100,100,17,,,,,,,,,,,,,,,,,,,,,0.14134109999940847,,,,0.06505830000060087,0.06518619999951625,,,,,,,,,,,,,,,,,,,,,,,,,,,,,,,,,,,,,,,,,,,,,,,,,,,,,,,,,,,,,,,,,,,,,,,,,,,,,,,002,001,2025-01-24_13h21.11.909,NESC3137_N400_exp,2023.2.3,59.96800107422217,2025-01-24 13h30.43.273490 -0400,
lips,0,101,101,94,,,,,,,,,,,,,,,,,,,,,0.14134109999940847,,,,0.06528489999982412,0.06538069999987783,,,,,,,,,,,,,,,,,,,,,,,,,,,,,,,,,,,,,,,,,,,,,,,,,,,,,,,,,,,,,,,,,,,,,,,,,,,,,,,002,001,2025-01-24_13h21.11.909,NESC3137_N400_exp,2023.2.3,59.96800107422217,2025-01-24 13h30.43.273490 -0400,
drum,0,102,102,46,,,,,,,,,,,,,,,,,,,,,0.14134109999940847,,,,0.06546170000001439,0.06562210000083724,,,,,,,,,,,,,,,,,,,,,,,,,,,,,,,,,,,,,,,,,,,,,,,,,,,,,,,,,,,,,,,,,,,,,,,,,,,,,,,002,001,2025-01-24_13h21.11.909,NESC3137_N400_exp,2023.2.3,59.96800107422217,2025-01-24 13h30.43.273490 -0400,
cake,0,103,103,23,,,,,,,,,,,,,,,,,,,,,0.14134109999940847,,,,0.0657245000002149,0.06582650000018475,,,,,,,,,,,,,,,,,,,,,,,,,,,,,,,,,,,,,,,,,,,,,,,,,,,,,,,,,,,,,,,,,,,,,,,,,,,,,,,002,001,2025-01-24_13h21.11.909,NESC3137_N400_exp,2023.2.3,59.96800107422217,2025-01-24 13h30.43.273490 -0400,
doorknob,0,104,104,44,,,,,,,,,,,,,,,,,,,,,0.14134109999940847,,,,0.06592550000095798,0.06603820000054839,,,,,,,,,,,,,,,,,,,,,,,,,,,,,,,,,,,,,,,,,,,,,,,,,,,,,,,,,,,,,,,,,,,,,,,,,,,,,,,002,001,2025-01-24_13h21.11.909,NESC3137_N400_exp,2023.2.3,59.96800107422217,2025-01-24 13h30.43.273490 -0400,
jacket,0,105,105,79,,,,,,,,,,,,,,,,,,,,,0.14134109999940847,,,,0.06614500000068801,0.06626270000015211,,,,,,,,,,,,,,,,,,,,,,,,,,,,,,,,,,,,,,,,,,,,,,,,,,,,,,,,,,,,,,,,,,,,,,,,,,,,,,,002,001,2025-01-24_13h21.11.909,NESC3137_N400_exp,2023.2.3,59.96800107422217,2025-01-24 13h30.43.273490 -0400,
television,0,106,106,156,,,,,,,,,,,,,,,,,,,,,0.14134109999940847,,,,0.06637319999936153,0.06647870000051626,,,,,,,,,,,,,,,,,,,,,,,,,,,,,,,,,,,,,,,,,,,,,,,,,,,,,,,,,,,,,,,,,,,,,,,,,,,,,,,002,001,2025-01-24_13h21.11.909,NESC3137_N400_exp,2023.2.3,59.96800107422217,2025-01-24 13h30.43.273490 -0400,
knife,0,107,107,84,,,,,,,,,,,,,,,,,,,,,0.14134109999940847,,,,0.0665662000010343,0.06667620000007446,,,,,,,,,,,,,,,,,,,,,,,,,,,,,,,,,,,,,,,,,,,,,,,,,,,,,,,,,,,,,,,,,,,,,,,,,,,,,,,002,001,2025-01-24_13h21.11.909,NESC3137_N400_exp,2023.2.3,59.96800107422217,2025-01-24 13h30.43.273490 -0400,
lightbulb,0,108,108,91,,,,,,,,,,,,,,,,,,,,,0.14134109999940847,,,,0.06711840000025404,0.06725320000077772,,,,,,,,,,,,,,,,,,,,,,,,,,,,,,,,,,,,,,,,,,,,,,,,,,,,,,,,,,,,,,,,,,,,,,,,,,,,,,,002,001,2025-01-24_13h21.11.909,NESC3137_N400_exp,2023.2.3,59.96800107422217,2025-01-24 13h30.43.273490 -0400,
whistle,0,109,109,174,,,,,,,,,,,,,,,,,,,,,0.14134109999940847,,,,0.06736009999985981,0.06746539999949164,,,,,,,,,,,,,,,,,,,,,,,,,,,,,,,,,,,,,,,,,,,,,,,,,,,,,,,,,,,,,,,,,,,,,,,,,,,,,,,002,001,2025-01-24_13h21.11.909,NESC3137_N400_exp,2023.2.3,59.96800107422217,2025-01-24 13h30.43.273490 -0400,
wheel,0,110,110,173,,,,,,,,,,,,,,,,,,,,,0.14134109999940847,,,,0.06754779999937455,0.06767729999955918,,,,,,,,,,,,,,,,,,,,,,,,,,,,,,,,,,,,,,,,,,,,,,,,,,,,,,,,,,,,,,,,,,,,,,,,,,,,,,,002,001,2025-01-24_13h21.11.909,NESC3137_N400_exp,2023.2.3,59.96800107422217,2025-01-24 13h30.43.273490 -0400,
monkey,0,111,111,98,,,,,,,,,,,,,,,,,,,,,0.14134109999940847,,,,0.06775920000109181,0.06933120000030613,,,,,,,,,,,,,,,,,,,,,,,,,,,,,,,,,,,,,,,,,,,,,,,,,,,,,,,,,,,,,,,,,,,,,,,,,,,,,,,002,001,2025-01-24_13h21.11.909,NESC3137_N400_exp,2023.2.3,59.96800107422217,2025-01-24 13h30.43.273490 -0400,
lettuce,0,112,112,90,,,,,,,,,,,,,,,,,,,,,0.14134109999940847,,,,0.06955770000058692,0.06974079999963578,,,,,,,,,,,,,,,,,,,,,,,,,,,,,,,,,,,,,,,,,,,,,,,,,,,,,,,,,,,,,,,,,,,,,,,,,,,,,,,002,001,2025-01-24_13h21.11.909,NESC3137_N400_exp,2023.2.3,59.96800107422217,2025-01-24 13h30.43.273490 -0400,
peach,0,113,113,111,,,,,,,,,,,,,,,,,,,,,0.14134109999940847,,,,0.0698802999995678,0.07004609999967215,,,,,,,,,,,,,,,,,,,,,,,,,,,,,,,,,,,,,,,,,,,,,,,,,,,,,,,,,,,,,,,,,,,,,,,,,,,,,,,002,001,2025-01-24_13h21.11.909,NESC3137_N400_exp,2023.2.3,59.96800107422217,2025-01-24 13h30.43.273490 -0400,
house,0,114,114,78,,,,,,,,,,,,,,,,,,,,,0.14134109999940847,,,,0.07018779999998515,0.07033039999987523,,,,,,,,,,,,,,,,,,,,,,,,,,,,,,,,,,,,,,,,,,,,,,,,,,,,,,,,,,,,,,,,,,,,,,,,,,,,,,,002,001,2025-01-24_13h21.11.909,NESC3137_N400_exp,2023.2.3,59.96800107422217,2025-01-24 13h30.43.273490 -0400,
hanger,0,115,115,72,,,,,,,,,,,,,,,,,,,,,0.14134109999940847,,,,0.07050390000040352,0.07066850000046543,,,,,,,,,,,,,,,,,,,,,,,,,,,,,,,,,,,,,,,,,,,,,,,,,,,,,,,,,,,,,,,,,,,,,,,,,,,,,,,002,001,2025-01-24_13h21.11.909,NESC3137_N400_exp,2023.2.3,59.96800107422217,2025-01-24 13h30.43.273490 -0400,
ruler,0,116,116,132,,,,,,,,,,,,,,,,,,,,,0.14134109999940847,,,,0.07078700000056415,0.07091880000007222,,,,,,,,,,,,,,,,,,,,,,,,,,,,,,,,,,,,,,,,,,,,,,,,,,,,,,,,,,,,,,,,,,,,,,,,,,,,,,,002,001,2025-01-24_13h21.11.909,NESC3137_N400_exp,2023.2.3,59.96800107422217,2025-01-24 13h30.43.273490 -0400,
eye,0,117,117,51,,,,,,,,,,,,,,,,,,,,,0.14134109999940847,,,,0.07102250000025379,0.07115820000035455,,,,,,,,,,,,,,,,,,,,,,,,,,,,,,,,,,,,,,,,,,,,,,,,,,,,,,,,,,,,,,,,,,,,,,,,,,,,,,,002,001,2025-01-24_13h21.11.909,NESC3137_N400_exp,2023.2.3,59.96800107422217,2025-01-24 13h30.43.273490 -0400,
rabbit,0,118,118,126,,,,,,,,,,,,,,,,,,,,,0.14134109999940847,,,,0.07132079999973939,0.07148299999971641,,,,,,,,,,,,,,,,,,,,,,,,,,,,,,,,,,,,,,,,,,,,,,,,,,,,,,,,,,,,,,,,,,,,,,,,,,,,,,,002,001,2025-01-24_13h21.11.909,NESC3137_N400_exp,2023.2.3,59.96800107422217,2025-01-24 13h30.43.273490 -0400,
cigarette,0,119,119,33,,,,,,,,,,,,,,,,,,,,,0.14134109999940847,,,,0.07162650000100257,0.0717783000000054,,,,,,,,,,,,,,,,,,,,,,,,,,,,,,,,,,,,,,,,,,,,,,,,,,,,,,,,,,,,,,,,,,,,,,,,,,,,,,,002,001,2025-01-24_13h21.11.909,NESC3137_N400_exp,2023.2.3,59.96800107422217,2025-01-24 13h30.43.273490 -0400,
star,0,120,120,148,,,,,,,,,,,,,,,,,,,,,0.14134109999940847,,,,0.07193200000074285,0.07206419999965874,,,,,,,,,,,,,,,,,,,,,,,,,,,,,,,,,,,,,,,,,,,,,,,,,,,,,,,,,,,,,,,,,,,,,,,,,,,,,,,002,001,2025-01-24_13h21.11.909,NESC3137_N400_exp,2023.2.3,59.96800107422217,2025-01-24 13h30.43.273490 -0400,
strawberry,0,121,121,150,,,,,,,,,,,,,,,,,,,,,0.14134109999940847,,,,0.07215680000081193,0.07228360000044631,,,,,,,,,,,,,,,,,,,,,,,,,,,,,,,,,,,,,,,,,,,,,,,,,,,,,,,,,,,,,,,,,,,,,,,,,,,,,,,002,001,2025-01-24_13h21.11.909,NESC3137_N400_exp,2023.2.3,59.96800107422217,2025-01-24 13h30.43.273490 -0400,
pitcher,0,122,122,121,,,,,,,,,,,,,,,,,,,,,0.14134109999940847,,,,0.07241210000029241,0.07258639999963634,,,,,,,,,,,,,,,,,,,,,,,,,,,,,,,,,,,,,,,,,,,,,,,,,,,,,,,,,,,,,,,,,,,,,,,,,,,,,,,002,001,2025-01-24_13h21.11.909,NESC3137_N400_exp,2023.2.3,59.96800107422217,2025-01-24 13h30.43.273490 -0400,
squirrel,0,123,123,147,,,,,,,,,,,,,,,,,,,,,0.14134109999940847,,,,0.07273110000096494,0.07289390000005369,,,,,,,,,,,,,,,,,,,,,,,,,,,,,,,,,,,,,,,,,,,,,,,,,,,,,,,,,,,,,,,,,,,,,,,,,,,,,,,002,001,2025-01-24_13h21.11.909,NESC3137_N400_exp,2023.2.3,59.96800107422217,2025-01-24 13h30.43.273490 -0400,
tomato,0,124,124,160,,,,,,,,,,,,,,,,,,,,,0.14134109999940847,,,,0.07303379999939352,0.07319280000047002,,,,,,,,,,,,,,,,,,,,,,,,,,,,,,,,,,,,,,,,,,,,,,,,,,,,,,,,,,,,,,,,,,,,,,,,,,,,,,,002,001,2025-01-24_13h21.11.909,NESC3137_N400_exp,2023.2.3,59.96800107422217,2025-01-24 13h30.43.273490 -0400,
grapes,0,125,125,66,,,,,,,,,,,,,,,,,,,,,0.14134109999940847,,,,0.07331189999968046,0.07347810000101163,,,,,,,,,,,,,,,,,,,,,,,,,,,,,,,,,,,,,,,,,,,,,,,,,,,,,,,,,,,,,,,,,,,,,,,,,,,,,,,002,001,2025-01-24_13h21.11.909,NESC3137_N400_exp,2023.2.3,59.96800107422217,2025-01-24 13h30.43.273490 -0400,
frog,0,126,126,58,,,,,,,,,,,,,,,,,,,,,0.14134109999940847,,,,0.07360540000081528,0.07374130000061996,,,,,,,,,,,,,,,,,,,,,,,,,,,,,,,,,,,,,,,,,,,,,,,,,,,,,,,,,,,,,,,,,,,,,,,,,,,,,,,002,001,2025-01-24_13h21.11.909,NESC3137_N400_exp,2023.2.3,59.96800107422217,2025-01-24 13h30.43.273490 -0400,
envelope,0,127,127,50,,,,,,,,,,,,,,,,,,,,,0.14134109999940847,,,,0.07386469999983092,0.07398009999997157,,,,,,,,,,,,,,,,,,,,,,,,,,,,,,,,,,,,,,,,,,,,,,,,,,,,,,,,,,,,,,,,,,,,,,,,,,,,,,,002,001,2025-01-24_13h21.11.909,NESC3137_N400_exp,2023.2.3,59.96800107422217,2025-01-24 13h30.43.273490 -0400,
button,0,128,128,22,,,,,,,,,,,,,,,,,,,,,0.14134109999940847,,,,0.0740803999997297,0.07422000000042317,,,,,,,,,,,,,,,,,,,,,,,,,,,,,,,,,,,,,,,,,,,,,,,,,,,,,,,,,,,,,,,,,,,,,,,,,,,,,,,002,001,2025-01-24_13h21.11.909,NESC3137_N400_exp,2023.2.3,59.96800107422217,2025-01-24 13h30.43.273490 -0400,
gloves,0,129,129,63,,,,,,,,,,,,,,,,,,,,,0.14134109999940847,,,,0.07431650000035006,0.07445890000053623,,,,,,,,,,,,,,,,,,,,,,,,,,,,,,,,,,,,,,,,,,,,,,,,,,,,,,,,,,,,,,,,,,,,,,,,,,,,,,,002,001,2025-01-24_13h21.11.909,NESC3137_N400_exp,2023.2.3,59.96800107422217,2025-01-24 13h30.43.273490 -0400,
gorilla,0,130,130,65,,,,,,,,,,,,,,,,,,,,,0.14134109999940847,,,,0.07453560000067228,0.0746383000005153,,,,,,,,,,,,,,,,,,,,,,,,,,,,,,,,,,,,,,,,,,,,,,,,,,,,,,,,,,,,,,,,,,,,,,,,,,,,,,,002,001,2025-01-24_13h21.11.909,NESC3137_N400_exp,2023.2.3,59.96800107422217,2025-01-24 13h30.43.273490 -0400,
fish,0,131,131,54,,,,,,,,,,,,,,,,,,,,,0.14134109999940847,,,,0.07472600000073726,0.07482350000100269,,,,,,,,,,,,,,,,,,,,,,,,,,,,,,,,,,,,,,,,,,,,,,,,,,,,,,,,,,,,,,,,,,,,,,,,,,,,,,,002,001,2025-01-24_13h21.11.909,NESC3137_N400_exp,2023.2.3,59.96800107422217,2025-01-24 13h30.43.273490 -0400,
moon,0,132,132,99,,,,,,,,,,,,,,,,,,,,,0.14134109999940847,,,,0.07489730000088457,0.07501050000064424,,,,,,,,,,,,,,,,,,,,,,,,,,,,,,,,,,,,,,,,,,,,,,,,,,,,,,,,,,,,,,,,,,,,,,,,,,,,,,,002,001,2025-01-24_13h21.11.909,NESC3137_N400_exp,2023.2.3,59.96800107422217,2025-01-24 13h30.43.273490 -0400,
owl,0,133,133,107,,,,,,,,,,,,,,,,,,,,,0.14134109999940847,,,,0.07511560000057216,0.07523580000088259,,,,,,,,,,,,,,,,,,,,,,,,,,,,,,,,,,,,,,,,,,,,,,,,,,,,,,,,,,,,,,,,,,,,,,,,,,,,,,,002,001,2025-01-24_13h21.11.909,NESC3137_N400_exp,2023.2.3,59.96800107422217,2025-01-24 13h30.43.273490 -0400,
lobster,0,134,134,95,,,,,,,,,,,,,,,,,,,,,0.14134109999940847,,,,0.07533340000009048,0.07546580000052927,,,,,,,,,,,,,,,,,,,,,,,,,,,,,,,,,,,,,,,,,,,,,,,,,,,,,,,,,,,,,,,,,,,,,,,,,,,,,,,002,001,2025-01-24_13h21.11.909,NESC3137_N400_exp,2023.2.3,59.96800107422217,2025-01-24 13h30.43.273490 -0400,
scissors,0,135,135,135,,,,,,,,,,,,,,,,,,,,,0.14134109999940847,,,,0.07556970000041474,0.07567550000021583,,,,,,,,,,,,,,,,,,,,,,,,,,,,,,,,,,,,,,,,,,,,,,,,,,,,,,,,,,,,,,,,,,,,,,,,,,,,,,,002,001,2025-01-24_13h21.11.909,NESC3137_N400_exp,2023.2.3,59.96800107422217,2025-01-24 13h30.43.273490 -0400,
bed,0,136,136,13,,,,,,,,,,,,,,,,,,,,,0.14134109999940847,,,,0.07575589999942167,0.07585120000112511,,,,,,,,,,,,,,,,,,,,,,,,,,,,,,,,,,,,,,,,,,,,,,,,,,,,,,,,,,,,,,,,,,,,,,,,,,,,,,,002,001,2025-01-24_13h21.11.909,NESC3137_N400_exp,2023.2.3,59.96800107422217,2025-01-24 13h30.43.273490 -0400,
mushroom,0,137,137,101,,,,,,,,,,,,,,,,,,,,,0.14134109999940847,,,,0.0759223999993992,0.07600370000000112,,,,,,,,,,,,,,,,,,,,,,,,,,,,,,,,,,,,,,,,,,,,,,,,,,,,,,,,,,,,,,,,,,,,,,,,,,,,,,,002,001,2025-01-24_13h21.11.909,NESC3137_N400_exp,2023.2.3,59.96800107422217,2025-01-24 13h30.43.273490 -0400,
truck,0,138,138,164,,,,,,,,,,,,,,,,,,,,,0.14134109999940847,,,,0.07607570000072883,0.07618600000023434,,,,,,,,,,,,,,,,,,,,,,,,,,,,,,,,,,,,,,,,,,,,,,,,,,,,,,,,,,,,,,,,,,,,,,,,,,,,,,,002,001,2025-01-24_13h21.11.909,NESC3137_N400_exp,2023.2.3,59.96800107422217,2025-01-24 13h30.43.273490 -0400,
ladder,0,139,139,85,,,,,,,,,,,,,,,,,,,,,0.14134109999940847,,,,0.07629310000083933,0.07641049999983807,,,,,,,,,,,,,,,,,,,,,,,,,,,,,,,,,,,,,,,,,,,,,,,,,,,,,,,,,,,,,,,,,,,,,,,,,,,,,,,002,001,2025-01-24_13h21.11.909,NESC3137_N400_exp,2023.2.3,59.96800107422217,2025-01-24 13h30.43.273490 -0400,
goat,0,140,140,64,,,,,,,,,,,,,,,,,,,,,0.14134109999940847,,,,0.07649870000022929,0.07660740000028454,,,,,,,,,,,,,,,,,,,,,,,,,,,,,,,,,,,,,,,,,,,,,,,,,,,,,,,,,,,,,,,,,,,,,,,,,,,,,,,002,001,2025-01-24_13h21.11.909,NESC3137_N400_exp,2023.2.3,59.96800107422217,2025-01-24 13h30.43.273490 -0400,
wagon,0,141,141,170,,,,,,,,,,,,,,,,,,,,,0.14134109999940847,,,,0.07669800000076066,0.07680769999933545,,,,,,,,,,,,,,,,,,,,,,,,,,,,,,,,,,,,,,,,,,,,,,,,,,,,,,,,,,,,,,,,,,,,,,,,,,,,,,,002,001,2025-01-24_13h21.11.909,NESC3137_N400_exp,2023.2.3,59.96800107422217,2025-01-24 13h30.43.273490 -0400,
ring,0,142,142,129,,,,,,,,,,,,,,,,,,,,,0.14134109999940847,,,,0.0768791999998939,0.07696969999960857,,,,,,,,,,,,,,,,,,,,,,,,,,,,,,,,,,,,,,,,,,,,,,,,,,,,,,,,,,,,,,,,,,,,,,,,,,,,,,,002,001,2025-01-24_13h21.11.909,NESC3137_N400_exp,2023.2.3,59.96800107422217,2025-01-24 13h30.43.273490 -0400,
anchor,0,143,143,3,,,,,,,,,,,,,,,,,,,,,0.14134109999940847,,,,0.07703500000025088,0.07712069999979576,,,,,,,,,,,,,,,,,,,,,,,,,,,,,,,,,,,,,,,,,,,,,,,,,,,,,,,,,,,,,,,,,,,,,,,,,,,,,,,002,001,2025-01-24_13h21.11.909,NESC3137_N400_exp,2023.2.3,59.96800107422217,2025-01-24 13h30.43.273490 -0400,
purse,0,144,144,125,,,,,,,,,,,,,,,,,,,,,0.14134109999940847,,,,0.07718800000111514,0.07729710000057821,,,,,,,,,,,,,,,,,,,,,,,,,,,,,,,,,,,,,,,,,,,,,,,,,,,,,,,,,,,,,,,,,,,,,,,,,,,,,,,002,001,2025-01-24_13h21.11.909,NESC3137_N400_exp,2023.2.3,59.96800107422217,2025-01-24 13h30.43.273490 -0400,
leg,0,145,145,88,,,,,,,,,,,,,,,,,,,,,0.14134109999940847,,,,0.07739530000071682,0.0774851000005583,,,,,,,,,,,,,,,,,,,,,,,,,,,,,,,,,,,,,,,,,,,,,,,,,,,,,,,,,,,,,,,,,,,,,,,,,,,,,,,002,001,2025-01-24_13h21.11.909,NESC3137_N400_exp,2023.2.3,59.96800107422217,2025-01-24 13h30.43.273490 -0400,
banana,0,146,146,9,,,,,,,,,,,,,,,,,,,,,0.14134109999940847,,,,0.07755639999959385,0.07763080000040645,,,,,,,,,,,,,,,,,,,,,,,,,,,,,,,,,,,,,,,,,,,,,,,,,,,,,,,,,,,,,,,,,,,,,,,,,,,,,,,002,001,2025-01-24_13h21.11.909,NESC3137_N400_exp,2023.2.3,59.96800107422217,2025-01-24 13h30.43.273490 -0400,
vest,0,147,147,168,,,,,,,,,,,,,,,,,,,,,0.14134109999940847,,,,0.07770089999939955,0.07777379999970435,,,,,,,,,,,,,,,,,,,,,,,,,,,,,,,,,,,,,,,,,,,,,,,,,,,,,,,,,,,,,,,,,,,,,,,,,,,,,,,002,001,2025-01-24_13h21.11.909,NESC3137_N400_exp,2023.2.3,59.96800107422217,2025-01-24 13h30.43.273490 -0400,
wineglass,0,148,148,177,,,,,,,,,,,,,,,,,,,,,0.14134109999940847,,,,0.07784460000038962,0.07795729999998002,,,,,,,,,,,,,,,,,,,,,,,,,,,,,,,,,,,,,,,,,,,,,,,,,,,,,,,,,,,,,,,,,,,,,,,,,,,,,,,002,001,2025-01-24_13h21.11.909,NESC3137_N400_exp,2023.2.3,59.96800107422217,2025-01-24 13h30.43.273490 -0400,
boot,0,149,149,18,,,,,,,,,,,,,,,,,,,,,0.14134109999940847,,,,0.07803360000070825,0.07816690000072413,,,,,,,,,,,,,,,,,,,,,,,,,,,,,,,,,,,,,,,,,,,,,,,,,,,,,,,,,,,,,,,,,,,,,,,,,,,,,,,002,001,2025-01-24_13h21.11.909,NESC3137_N400_exp,2023.2.3,59.96800107422217,2025-01-24 13h30.43.273490 -0400,
chair,0,150,150,30,,,,,,,,,,,,,,,,,,,,,0.14134109999940847,,,,0.07838140000058047,0.07856859999992594,,,,,,,,,,,,,,,,,,,,,,,,,,,,,,,,,,,,,,,,,,,,,,,,,,,,,,,,,,,,,,,,,,,,,,,,,,,,,,,002,001,2025-01-24_13h21.11.909,NESC3137_N400_exp,2023.2.3,59.96800107422217,2025-01-24 13h30.43.273490 -0400,
seahorse,0,151,151,137,,,,,,,,,,,,,,,,,,,,,0.14134109999940847,,,,0.07873210000070685,0.0788871000004292,,,,,,,,,,,,,,,,,,,,,,,,,,,,,,,,,,,,,,,,,,,,,,,,,,,,,,,,,,,,,,,,,,,,,,,,,,,,,,,002,001,2025-01-24_13h21.11.909,NESC3137_N400_exp,2023.2.3,59.96800107422217,2025-01-24 13h30.43.273490 -0400,
barrel,0,152,152,10,,,,,,,,,,,,,,,,,,,,,0.14134109999940847,,,,0.07902420000027632,0.07917769999949087,,,,,,,,,,,,,,,,,,,,,,,,,,,,,,,,,,,,,,,,,,,,,,,,,,,,,,,,,,,,,,,,,,,,,,,,,,,,,,,002,001,2025-01-24_13h21.11.909,NESC3137_N400_exp,2023.2.3,59.96800107422217,2025-01-24 13h30.43.273490 -0400,
pig,0,153,153,118,,,,,,,,,,,,,,,,,,,,,0.14134109999940847,,,,0.07928660000106902,0.07941770000070392,,,,,,,,,,,,,,,,,,,,,,,,,,,,,,,,,,,,,,,,,,,,,,,,,,,,,,,,,,,,,,,,,,,,,,,,,,,,,,,002,001,2025-01-24_13h21.11.909,NESC3137_N400_exp,2023.2.3,59.96800107422217,2025-01-24 13h30.43.273490 -0400,
axe,0,154,154,6,,,,,,,,,,,,,,,,,,,,,0.14134109999940847,,,,0.07954120000067633,0.07972739999968326,,,,,,,,,,,,,,,,,,,,,,,,,,,,,,,,,,,,,,,,,,,,,,,,,,,,,,,,,,,,,,,,,,,,,,,,,,,,,,,002,001,2025-01-24_13h21.11.909,NESC3137_N400_exp,2023.2.3,59.96800107422217,2025-01-24 13h30.43.273490 -0400,
snowman,0,155,155,145,,,,,,,,,,,,,,,,,,,,,0.14134109999940847,,,,0.07991530000072089,0.08006080000086513,,,,,,,,,,,,,,,,,,,,,,,,,,,,,,,,,,,,,,,,,,,,,,,,,,,,,,,,,,,,,,,,,,,,,,,,,,,,,,,002,001,2025-01-24_13h21.11.909,NESC3137_N400_exp,2023.2.3,59.96800107422217,2025-01-24 13h30.43.273490 -0400,
hair,0,156,156,69,,,,,,,,,,,,,,,,,,,,,0.14134109999940847,,,,0.08017599999948288,0.08028759999979229,,,,,,,,,,,,,,,,,,,,,,,,,,,,,,,,,,,,,,,,,,,,,,,,,,,,,,,,,,,,,,,,,,,,,,,,,,,,,,,002,001,2025-01-24_13h21.11.909,NESC3137_N400_exp,2023.2.3,59.96800107422217,2025-01-24 13h30.43.273490 -0400,
umbrella,0,157,157,166,,,,,,,,,,,,,,,,,,,,,0.14134109999940847,,,,0.0803808000000572,0.0805039000006218,,,,,,,,,,,,,,,,,,,,,,,,,,,,,,,,,,,,,,,,,,,,,,,,,,,,,,,,,,,,,,,,,,,,,,,,,,,,,,,002,001,2025-01-24_13h21.11.909,NESC3137_N400_exp,2023.2.3,59.96800107422217,2025-01-24 13h30.43.273490 -0400,
bee,0,158,158,14,,,,,,,,,,,,,,,,,,,,,0.14134109999940847,,,,0.08058730000084324,0.08068050000110816,,,,,,,,,,,,,,,,,,,,,,,,,,,,,,,,,,,,,,,,,,,,,,,,,,,,,,,,,,,,,,,,,,,,,,,,,,,,,,,002,001,2025-01-24_13h21.11.909,NESC3137_N400_exp,2023.2.3,59.96800107422217,2025-01-24 13h30.43.273490 -0400,
table,0,159,159,155,,,,,,,,,,,,,,,,,,,,,0.14134109999940847,,,,0.08075370000005933,0.08084659999985888,,,,,,,,,,,,,,,,,,,,,,,,,,,,,,,,,,,,,,,,,,,,,,,,,,,,,,,,,,,,,,,,,,,,,,,,,,,,,,,002,001,2025-01-24_13h21.11.909,NESC3137_N400_exp,2023.2.3,59.96800107422217,2025-01-24 13h30.43.273490 -0400,
cannon,0,160,160,26,,,,,,,,,,,,,,,,,,,,,0.14134109999940847,,,,0.08095030000004044,0.08109309999963443,,,,,,,,,,,,,,,,,,,,,,,,,,,,,,,,,,,,,,,,,,,,,,,,,,,,,,,,,,,,,,,,,,,,,,,,,,,,,,,002,001,2025-01-24_13h21.11.909,NESC3137_N400_exp,2023.2.3,59.96800107422217,2025-01-24 13h30.43.273490 -0400,
camel,0,161,161,24,,,,,,,,,,,,,,,,,,,,,0.14134109999940847,,,,0.08119550000083109,0.08131289999982982,,,,,,,,,,,,,,,,,,,,,,,,,,,,,,,,,,,,,,,,,,,,,,,,,,,,,,,,,,,,,,,,,,,,,,,,,,,,,,,002,001,2025-01-24_13h21.11.909,NESC3137_N400_exp,2023.2.3,59.96800107422217,2025-01-24 13h30.43.273490 -0400,
crown,0,162,162,39,,,,,,,,,,,,,,,,,,,,,0.14134109999940847,,,,0.08141960000102699,0.08159270000032848,,,,,,,,,,,,,,,,,,,,,,,,,,,,,,,,,,,,,,,,,,,,,,,,,,,,,,,,,,,,,,,,,,,,,,,,,,,,,,,002,001,2025-01-24_13h21.11.909,NESC3137_N400_exp,2023.2.3,59.96800107422217,2025-01-24 13h30.43.273490 -0400,
zebra,0,163,163,179,,,,,,,,,,,,,,,,,,,,,0.14134109999940847,,,,0.08177539999996952,0.08193469999969238,,,,,,,,,,,,,,,,,,,,,,,,,,,,,,,,,,,,,,,,,,,,,,,,,,,,,,,,,,,,,,,,,,,,,,,,,,,,,,,002,001,2025-01-24_13h21.11.909,NESC3137_N400_exp,2023.2.3,59.96800107422217,2025-01-24 13h30.43.273490 -0400,
key,0,164,164,82,,,,,,,,,,,,,,,,,,,,,0.14134109999940847,,,,0.08205110000017157,0.08215930000005756,,,,,,,,,,,,,,,,,,,,,,,,,,,,,,,,,,,,,,,,,,,,,,,,,,,,,,,,,,,,,,,,,,,,,,,,,,,,,,,002,001,2025-01-24_13h21.11.909,NESC3137_N400_exp,2023.2.3,59.96800107422217,2025-01-24 13h30.43.273490 -0400,
basket,0,165,165,11,,,,,,,,,,,,,,,,,,,,,0.14134109999940847,,,,0.08226319999994303,0.0823645000000397,,,,,,,,,,,,,,,,,,,,,,,,,,,,,,,,,,,,,,,,,,,,,,,,,,,,,,,,,,,,,,,,,,,,,,,,,,,,,,,002,001,2025-01-24_13h21.11.909,NESC3137_N400_exp,2023.2.3,59.96800107422217,2025-01-24 13h30.43.273490 -0400,
salt,0,166,166,133,,,,,,,,,,,,,,,,,,,,,0.14134109999940847,,,,0.08245669999996608,0.08259390000057465,,,,,,,,,,,,,,,,,,,,,,,,,,,,,,,,,,,,,,,,,,,,,,,,,,,,,,,,,,,,,,,,,,,,,,,,,,,,,,,002,001,2025-01-24_13h21.11.909,NESC3137_N400_exp,2023.2.3,59.96800107422217,2025-01-24 13h30.43.273490 -0400,
pineapple,0,167,167,119,,,,,,,,,,,,,,,,,,,,,0.14134109999940847,,,,0.08268800000041665,0.08281499999975495,,,,,,,,,,,,,,,,,,,,,,,,,,,,,,,,,,,,,,,,,,,,,,,,,,,,,,,,,,,,,,,,,,,,,,,,,,,,,,,002,001,2025-01-24_13h21.11.909,NESC3137_N400_exp,2023.2.3,59.96800107422217,2025-01-24 13h30.43.273490 -0400,
piano,0,168,168,117,,,,,,,,,,,,,,,,,,,,,0.14134109999940847,,,,0.08292540000002191,0.08303080000041518,,,,,,,,,,,,,,,,,,,,,,,,,,,,,,,,,,,,,,,,,,,,,,,,,,,,,,,,,,,,,,,,,,,,,,,,,,,,,,,002,001,2025-01-24_13h21.11.909,NESC3137_N400_exp,2023.2.3,59.96800107422217,2025-01-24 13h30.43.273490 -0400,
corn,0,169,169,37,,,,,,,,,,,,,,,,,,,,,0.14134109999940847,,,,0.08311560000038298,0.0832196000010299,,,,,,,,,,,,,,,,,,,,,,,,,,,,,,,,,,,,,,,,,,,,,,,,,,,,,,,,,,,,,,,,,,,,,,,,,,,,,,,002,001,2025-01-24_13h21.11.909,NESC3137_N400_exp,2023.2.3,59.96800107422217,2025-01-24 13h30.43.273490 -0400,
cow,0,170,170,38,,,,,,,,,,,,,,,,,,,,,0.14134109999940847,,,,0.0833065999995597,0.08338670000011916,,,,,,,,,,,,,,,,,,,,,,,,,,,,,,,,,,,,,,,,,,,,,,,,,,,,,,,,,,,,,,,,,,,,,,,,,,,,,,,002,001,2025-01-24_13h21.11.909,NESC3137_N400_exp,2023.2.3,59.96800107422217,2025-01-24 13h30.43.273490 -0400,
leaf,0,171,171,87,,,,,,,,,,,,,,,,,,,,,0.14134109999940847,,,,0.08345360000021174,0.08357450000039535,,,,,,,,,,,,,,,,,,,,,,,,,,,,,,,,,,,,,,,,,,,,,,,,,,,,,,,,,,,,,,,,,,,,,,,,,,,,,,,002,001,2025-01-24_13h21.11.909,NESC3137_N400_exp,2023.2.3,59.96800107422217,2025-01-24 13h30.43.273490 -0400,
pot,0,172,172,123,,,,,,,,,,,,,,,,,,,,,0.14134109999940847,,,,0.0836739000005764,0.08379000000059023,,,,,,,,,,,,,,,,,,,,,,,,,,,,,,,,,,,,,,,,,,,,,,,,,,,,,,,,,,,,,,,,,,,,,,,,,,,,,,,002,001,2025-01-24_13h21.11.909,NESC3137_N400_exp,2023.2.3,59.96800107422217,2025-01-24 13h30.43.273490 -0400,
seal,0,173,173,138,,,,,,,,,,,,,,,,,,,,,0.14134109999940847,,,,0.08389900000111084,0.08400900000015099,,,,,,,,,,,,,,,,,,,,,,,,,,,,,,,,,,,,,,,,,,,,,,,,,,,,,,,,,,,,,,,,,,,,,,,,,,,,,,,002,001,2025-01-24_13h21.11.909,NESC3137_N400_exp,2023.2.3,59.96800107422217,2025-01-24 13h30.43.273490 -0400,
kettle,0,174,174,81,,,,,,,,,,,,,,,,,,,,,0.14134109999940847,,,,0.0840898999995261,0.08420070000101987,,,,,,,,,,,,,,,,,,,,,,,,,,,,,,,,,,,,,,,,,,,,,,,,,,,,,,,,,,,,,,,,,,,,,,,,,,,,,,,002,001,2025-01-24_13h21.11.909,NESC3137_N400_exp,2023.2.3,59.96800107422217,2025-01-24 13h30.43.273490 -0400,
ostrich,0,175,175,106,,,,,,,,,,,,,,,,,,,,,0.14134109999940847,,,,0.08429830000022775,0.08446469999944384,,,,,,,,,,,,,,,,,,,,,,,,,,,,,,,,,,,,,,,,,,,,,,,,,,,,,,,,,,,,,,,,,,,,,,,,,,,,,,,002,001,2025-01-24_13h21.11.909,NESC3137_N400_exp,2023.2.3,59.96800107422217,2025-01-24 13h30.43.273490 -0400,
fence,0,176,176,52,,,,,,,,,,,,,,,,,,,,,0.14134109999940847,,,,0.08456479999949806,0.08470520000082615,,,,,,,,,,,,,,,,,,,,,,,,,,,,,,,,,,,,,,,,,,,,,,,,,,,,,,,,,,,,,,,,,,,,,,,,,,,,,,,002,001,2025-01-24_13h21.11.909,NESC3137_N400_exp,2023.2.3,59.96800107422217,2025-01-24 13h30.43.273490 -0400,
doll,0,177,177,43,,,,,,,,,,,,,,,,,,,,,0.14134109999940847,,,,0.08482030000050145,0.08494590000009339,,,,,,,,,,,,,,,,,,,,,,,,,,,,,,,,,,,,,,,,,,,,,,,,,,,,,,,,,,,,,,,,,,,,,,,,,,,,,,,002,001,2025-01-24_13h21.11.909,NESC3137_N400_exp,2023.2.3,59.96800107422217,2025-01-24 13h30.43.273490 -0400,
guitar,0,178,178,67,,,,,,,,,,,,,,,,,,,,,0.14134109999940847,,,,0.08504670000002079,0.0851676000002044,,,,,,,,,,,,,,,,,,,,,,,,,,,,,,,,,,,,,,,,,,,,,,,,,,,,,,,,,,,,,,,,,,,,,,,,,,,,,,,002,001,2025-01-24_13h21.11.909,NESC3137_N400_exp,2023.2.3,59.96800107422217,2025-01-24 13h30.43.273490 -0400,
well,0,179,179,172,,,,,,,,,,,,,,,,,,,,,0.14134109999940847,,,,0.0852682000004279,0.08537520000027143,,,,,,,,,,,,,,,,,,,,,,,,,,,,,,,,,,,,,,,,,,,,,,,,,,,,,,,,,,,,,,,,,,,,,,,,,,,,,,,002,001,2025-01-24_13h21.11.909,NESC3137_N400_exp,2023.2.3,59.96800107422217,2025-01-24 13h30.43.273490 -0400,
,,,,,0,0,0,0,,,,,,,,,,,,,,,,,0.14134109999940847,,,,,,0.08577100000002247,0.08609590000014578,,,,,,,,,,,,,,,,,,,,,,,,,,,,,,,,,,,,,,,,,,,,,,,,,,,,,,,,,,,,,,,,,,,,,,,,,,,,,002,001,2025-01-24_13h21.11.909,NESC3137_N400_exp,2023.2.3,59.96800107422217,2025-01-24 13h30.43.273490 -0400,
,,,,,,,,,,,,,,,,,,,,,,,,,,,,,,,,,0.08611990000099468,0.14134109999940847,0.14134109999940847,82.5503033999994,space,82.40636150000137,None,,,,,,,,,,,,,,,,,,,,,,,,,,,,,,,,,,,,,,,,,,,,,,,,,,,,,,,,,,,,,,,,,,,,,,002,001,2025-01-24_13h21.11.909,NESC3137_N400_exp,2023.2.3,59.96800107422217,2025-01-24 13h30.43.273490 -0400,
,,,,,,,,,0,0,0,0,,,,,,,,,,,,,82.56477180000002,,,,,,,,,,,,,,,82.55082589999984,82.56477180000002,83.0783078000004,83.04884529999981,83.04885400000057,83.08185793999982,83.56593749999956,85.0671125000008,85.05108550000114,85.0511019000005,86.15237780000098,86.15237780000098,87.22095400000035,fence,resources/stimuli/fence_foil.wav,right,right,1,1066.681600001175,right,1,1.066681600001175,None,,,,,,,,,,,,,,,,,,,,,,,,,,,,,,,,,,,,,,,,,,,,,,,002,001,2025-01-24_13h21.11.909,NESC3137_N400_exp,2023.2.3,59.96800107422217,2025-01-24 13h30.43.273490 -0400,
,,,,,,,,,1,0,1,0,,,,,,,,,,,,,87.23603879999973,,,,,,,,,,,,,,,87.22213650000049,87.23603879999973,87.74615249999988,87.7203284999996,87.72033969999939,87.75330193999943,88.23731419999967,89.7387531000004,89.7225997000005,89.7226081000008,90.82375890000003,90.82375890000003,91.25907890000053,clown,resources/stimuli/clown_foil.wav,right,right,1,419.36680000071647,right,1,0.41936680000071647,None,,,,,,,,,,,,,,,,,,,,,,,,,,,,,,,,,,,,,,,,,,,,,,,002,001,2025-01-24_13h21.11.909,NESC3137_N400_exp,2023.2.3,59.96800107422217,2025-01-24 13h30.43.273490 -0400,
,,,,,,,,,2,0,2,0,,,,,,,,,,,,,91.27350630000001,,,,,,,,,,,,,,,91.26005400000031,91.27350630000001,91.78324770000108,91.7578966000001,91.75790500000039,91.79078244000047,92.2745073999995,93.77566099999967,93.75973669999985,93.75974560000031,94.86176239999986,94.86176239999986,95.17861780000021,snowman,resources/stimuli/snowman.wav,left,left,1,301.4000000002852,left,1,0.3014000000002852,None,,,,,,,,,,,,,,,,,,,,,,,,,,,,,,,,,,,,,,,,,,,,,,,002,001,2025-01-24_13h21.11.909,NESC3137_N400_exp,2023.2.3,59.96800107422217,2025-01-24 13h30.43.273490 -0400,
,,,,,,,,,3,0,3,0,,,,,,,,,,,,,95.19476750000103,,,,,,,,,,,,,,,95.17955299999994,95.19476750000103,95.69464759999937,95.67815270000028,95.67816669999957,95.69435151999987,96.17843530000027,97.6804931000006,97.66405680000025,97.66406670000106,98.78165310000077,98.78165310000077,99.03309640000043,fence,resources/stimuli/fence_foil.wav,right,right,1,246.06750000020838,right,1,0.24606750000020838,None,,,,,,,,,,,,,,,,,,,,,,,,,,,,,,,,,,,,,,,,,,,,,,,002,001,2025-01-24_13h21.11.909,NESC3137_N400_exp,2023.2.3,59.96800107422217,2025-01-24 13h30.43.273490 -0400,
,,,,,,,,,4,0,4,0,,,,,,,,,,,,,99.04781850000109,,,,,,,,,,,,,,,99.03405539999949,99.04781850000109,99.55273529999977,99.53294040000037,99.53296090000003,99.56588094000071,100.0488791000007,101.55026960000032,101.53419759999997,101.53420689999984,102.6359551000005,102.6359551000005,103.03639029999977,eagle,resources/stimuli/eagle.wav,left,left,1,391.75969999996596,left,1,0.39175969999996596,None,,,,,,,,,,,,,,,,,,,,,,,,,,,,,,,,,,,,,,,,,,,,,,,002,001,2025-01-24_13h21.11.909,NESC3137_N400_exp,2023.2.3,59.96800107422217,2025-01-24 13h30.43.273490 -0400,
,,,,,,,,,5,0,5,0,,,,,,,,,,,,,103.05199660000108,,,,,,,,,,,,,,,103.03754110000045,103.05199660000108,103.55238120000104,103.53603430000112,103.53604430000087,103.55234711999928,104.03638780000074,105.53760789999978,105.52152810000007,105.52154189999965,106.64009459999943,106.64009459999943,107.00734030000058,sled,resources/stimuli/sled_foil.wav,right,right,1,363.42209999929764,right,1,0.36342209999929764,None,,,,,,,,,,,,,,,,,,,,,,,,,,,,,,,,,,,,,,,,,,,,,,,002,001,2025-01-24_13h21.11.909,NESC3137_N400_exp,2023.2.3,59.96800107422217,2025-01-24 13h30.43.273490 -0400,
,,,,,,,,,6,0,6,0,,,,,,,,,,,,,107.02287050000086,,,,,,,,,,,,,,,107.00843840000016,107.02287050000086,107.53111159999935,107.50669659999949,107.50670440000067,107.53964274000063,108.02353460000086,109.52503439999964,109.50947260000066,109.50948190000054,110.61030700000083,110.61030700000083,111.04448980000052,sun,resources/stimuli/sun_foil.wav,right,right,1,424.81279999992694,right,1,0.42481279999992694,None,,,,,,,,,,,,,,,,,,,,,,,,,,,,,,,,,,,,,,,,,,,,,,,002,001,2025-01-24_13h21.11.909,NESC3137_N400_exp,2023.2.3,59.96800107422217,2025-01-24 13h30.43.273490 -0400,
,,,,,,,,,7,0,7,0,,,,,,,,,,,,,111.06004030000076,,,,,,,,,,,,,,,111.0454023000002,111.06004030000076,111.56894199999988,111.54424570000083,111.54426059999969,111.57715763999985,112.04436050000004,113.5463249000004,113.53011470000092,113.5301244000002,114.6475747000004,114.6475747000004,115.0153091000011,lightbulb,resources/stimuli/lightbulb_foil.wav,right,right,1,355.90419999971346,right,1,0.35590419999971346,None,,,,,,,,,,,,,,,,,,,,,,,,,,,,,,,,,,,,,,,,,,,,,,,002,001,2025-01-24_13h21.11.909,NESC3137_N400_exp,2023.2.3,59.96800107422217,2025-01-24 13h30.43.273490 -0400,
,,,,,,,,,8,0,8,0,,,,,,,,,,,,,115.0304629000002,,,,,,,,,,,,,,,115.01661530000092,115.0304629000002,115.53952729999946,115.51473040000019,115.51473880000049,115.54777004000024,116.0148408999994,117.51643879999938,117.49999130000106,117.50000510000064,118.61805490000006,118.61805490000006,119.01925210000081,lock,resources/stimuli/lock.wav,left,left,1,385.330500001146,left,1,0.385330500001146,None,,,,,,,,,,,,,,,,,,,,,,,,,,,,,,,,,,,,,,,,,,,,,,,002,001,2025-01-24_13h21.11.909,NESC3137_N400_exp,2023.2.3,59.96800107422217,2025-01-24 13h30.43.273490 -0400,
,,,,,,,,,9,0,9,0,,,,,,,,,,,,,119.03434639999978,,,,,,,,,,,,,,,119.02017710000109,119.03434639999978,119.54395060000024,119.51896870000019,119.51898020000044,119.55184653999967,120.01891140000043,121.52106240000103,121.50415210000028,121.50416750000113,122.62204340000062,122.62204340000062,123.05633979999948,jacket,resources/stimuli/jacket.wav,left,left,1,421.5630999988207,left,1,0.4215630999988207,None,,,,,,,,,,,,,,,,,,,,,,,,,,,,,,,,,,,,,,,,,,,,,,,002,001,2025-01-24_13h21.11.909,NESC3137_N400_exp,2023.2.3,59.96800107422217,2025-01-24 13h30.43.273490 -0400,
,,,,,,,,,10,0,10,0,,,,,,,,,,,,,123.07214480000039,,,,,,,,,,,,,,,123.05725399999938,123.07214480000039,123.57973579999998,123.55628849999994,123.55630229999952,123.58917093999989,124.05640739999944,125.55780969999978,125.54138369999964,125.54139450000002,126.65959029999976,126.65959029999976,127.07789270000103,onion,resources/stimuli/onion.wav,left,left,1,415.79929999898013,left,1,0.41579929999898013,None,,,,,,,,,,,,,,,,,,,,,,,,,,,,,,,,,,,,,,,,,,,,,,,002,001,2025-01-24_13h21.11.909,NESC3137_N400_exp,2023.2.3,59.96800107422217,2025-01-24 13h30.43.273490 -0400,
,,,,,,,,,11,0,11,0,,,,,,,,,,,,,127.09259440000096,,,,,,,,,,,,,,,127.07909409999957,127.09259440000096,127.59928639999998,127.5768850000004,127.57689449999998,127.60985193999986,128.0934440000001,129.59512809999978,129.578822200001,129.57883270000093,130.68090699999993,130.68090699999993,131.04829220000101,ladder,resources/stimuli/ladder_foil.wav,right,right,1,362.0984999997745,right,1,0.3620984999997745,None,,,,,,,,,,,,,,,,,,,,,,,,,,,,,,,,,,,,,,,,,,,,,,,002,001,2025-01-24_13h21.11.909,NESC3137_N400_exp,2023.2.3,59.96800107422217,2025-01-24 13h30.43.273490 -0400,
,,,,,,,,,12,0,12,0,,,,,,,,,,,,,131.06340490000002,,,,,,,,,,,,,,,131.04916670000057,131.06340490000002,131.5735205000001,131.5475107000002,131.54752449999978,131.5805055399993,132.0476509,133.5497180000002,133.53273830000035,133.53274760000022,134.6509403,134.6509403,134.93515149999985,bed,resources/stimuli/bed.wav,left,left,1,272.00079999965965,left,1,0.27200079999965965,None,,,,,,,,,,,,,,,,,,,,,,,,,,,,,,,,,,,,,,,,,,,,,,,002,001,2025-01-24_13h21.11.909,NESC3137_N400_exp,2023.2.3,59.96800107422217,2025-01-24 13h30.43.273490 -0400,
,,,,,,,,,13,0,13,0,,,,,,,,,,,,,134.95049570000083,,,,,,,,,,,,,,,134.93641320000097,134.95049570000083,135.4592929999999,135.43446530000074,135.4344746000006,135.46746214000052,135.9346784999998,137.43613110000115,137.42011939999975,137.4201365000008,138.53848749999997,138.53848749999997,138.7556222000003,sheep,resources/stimuli/sheep.wav,left,left,1,208.39110000088112,left,1,0.20839110000088112,None,,,,,,,,,,,,,,,,,,,,,,,,,,,,,,,,,,,,,,,,,,,,,,,002,001,2025-01-24_13h21.11.909,NESC3137_N400_exp,2023.2.3,59.96800107422217,2025-01-24 13h30.43.273490 -0400,
,,,,,,,,,14,0,14,0,,,,,,,,,,,,,138.77171830000043,,,,,,,,,,,,,,,138.7566222000005,138.77171830000043,139.27632679999988,139.25522850000016,139.2552398000007,139.28819484000053,139.7747271999997,141.27334770000016,141.25776170000063,141.2577755000002,142.35833339999954,142.35833339999954,142.609279100001,banana,resources/stimuli/banana_foil.wav,right,right,1,244.8967000000266,right,1,0.2448967000000266,None,,,,,,,,,,,,,,,,,,,,,,,,,,,,,,,,,,,,,,,,,,,,,,,002,001,2025-01-24_13h21.11.909,NESC3137_N400_exp,2023.2.3,59.96800107422217,2025-01-24 13h30.43.273490 -0400,
,,,,,,,,,15,0,15,0,,,,,,,,,,,,,142.62468649999937,,,,,,,,,,,,,,,142.6102049000001,142.62468649999937,143.13428999999996,143.1087862000004,143.10879510000086,143.14180484000065,143.60900650000076,145.11057710000023,145.09433960000024,145.09434950000104,146.21250789999976,146.21250789999976,146.4798294000011,tiger,resources/stimuli/tiger.wav,left,left,1,254.47349999922153,left,1,0.25447349999922153,None,,,,,,,,,,,,,,,,,,,,,,,,,,,,,,,,,,,,,,,,,,,,,,,002,001,2025-01-24_13h21.11.909,NESC3137_N400_exp,2023.2.3,59.96800107422217,2025-01-24 13h30.43.273490 -0400,
,,,,,,,,,16,0,16,0,,,,,,,,,,,,,146.4953598000011,,,,,,,,,,,,,,,146.48088989999997,146.4953598000011,147.00359779999962,146.97956890000023,146.97958090000066,147.01255423999976,147.47988609999993,148.98095680000006,148.965401200001,148.9654171000002,150.08301969999957,150.08301969999957,150.38385170000038,monkey,resources/stimuli/monkey.wav,left,left,1,287.91850000015984,left,1,0.28791850000015984,None,,,,,,,,,,,,,,,,,,,,,,,,,,,,,,,,,,,,,,,,,,,,,,,002,001,2025-01-24_13h21.11.909,NESC3137_N400_exp,2023.2.3,59.96800107422217,2025-01-24 13h30.43.273490 -0400,
,,,,,,,,,17,0,17,0,,,,,,,,,,,,,150.39980240000114,,,,,,,,,,,,,,,150.38474769999993,150.39980240000114,150.9095784000001,150.88345459999982,150.88346620000084,150.91638704000036,151.38374620000104,152.8849642999994,152.86924200000067,152.8692504999999,153.98679980000088,153.98679980000088,154.45477000000028,skirt,resources/stimuli/skirt.wav,left,left,1,456.5141999992193,left,1,0.4565141999992193,None,,,,,,,,,,,,,,,,,,,,,,,,,,,,,,,,,,,,,,,,,,,,,,,002,001,2025-01-24_13h21.11.909,NESC3137_N400_exp,2023.2.3,59.96800107422217,2025-01-24 13h30.43.273490 -0400,
,,,,,,,,,18,0,18,0,,,,,,,,,,,,,154.46985870000026,,,,,,,,,,,,,,,154.45625819999987,154.46985870000026,154.97749529999965,154.9541105999997,154.95412140000008,154.98711954000066,155.47147810000024,156.9723883000006,156.95610359999955,156.9561149000001,158.05805340000006,158.05805340000006,158.3257582999995,orange,resources/stimuli/orange_foil.wav,right,right,1,257.19389999903797,right,1,0.25719389999903797,None,,,,,,,,,,,,,,,,,,,,,,,,,,,,,,,,,,,,,,,,,,,,,,,002,001,2025-01-24_13h21.11.909,NESC3137_N400_exp,2023.2.3,59.96800107422217,2025-01-24 13h30.43.273490 -0400,
,,,,,,,,,19,0,19,0,,,,,,,,,,,,,158.34101999999984,,,,,,,,,,,,,,,158.32691820000036,158.34101999999984,158.85081209999953,158.82496900000115,158.82498080000005,158.85766574000047,159.34211510000023,160.8427544999995,160.82679579999967,160.82681179999963,161.9278505000002,161.9278505000002,162.19582300000002,well,resources/stimuli/well.wav,left,left,1,251.38849999893864,left,1,0.25138849999893864,None,,,,,,,,,,,,,,,,,,,,,,,,,,,,,,,,,,,,,,,,,,,,,,,002,001,2025-01-24_13h21.11.909,NESC3137_N400_exp,2023.2.3,59.96800107422217,2025-01-24 13h30.43.273490 -0400,
,,,,,,,,,20,0,20,0,,,,,,,,,,,,,162.21089779999966,,,,,,,,,,,,,,,162.19673839999996,162.21089779999966,162.7216497999998,162.6951998000004,162.69521259999965,162.72819734000007,163.21185890000015,164.7135474000006,164.69729850000112,164.697307800001,165.79853899999944,165.79853899999944,166.01612600000044,wrench,resources/stimuli/wrench_foil.wav,right,right,1,204.39449999867065,right,1,0.20439449999867065,None,,,,,,,,,,,,,,,,,,,,,,,,,,,,,,,,,,,,,,,,,,,,,,,002,001,2025-01-24_13h21.11.909,NESC3137_N400_exp,2023.2.3,59.96800107422217,2025-01-24 13h30.43.273490 -0400,
,,,,,,,,,21,0,21,0,,,,,,,,,,,,,166.0314498000007,,,,,,,,,,,,,,,166.01705799999945,166.0314498000007,166.53749340000104,166.5161809000001,166.51618899999994,166.54915353999934,167.0165837000004,168.51722950000112,168.50114700000086,168.50115709999955,169.61894740000025,169.61894740000025,169.8532367000007,truck,resources/stimuli/truck.wav,left,left,1,224.46040000068024,left,1,0.22446040000068024,None,,,,,,,,,,,,,,,,,,,,,,,,,,,,,,,,,,,,,,,,,,,,,,,002,001,2025-01-24_13h21.11.909,NESC3137_N400_exp,2023.2.3,59.96800107422217,2025-01-24 13h30.43.273490 -0400,
,,,,,,,,,22,0,22,0,,,,,,,,,,,,,169.86849520000032,,,,,,,,,,,,,,,169.85417899999993,169.86849520000032,170.3772886000006,170.3528495999999,170.3528640000004,170.3858238400004,170.85310489999938,172.3544935000009,172.3383515000005,172.33836080000037,173.456196000001,173.456196000001,173.6571552000005,cow,resources/stimuli/cow_foil.wav,right,right,1,187.1859000002587,right,1,0.1871859000002587,None,,,,,,,,,,,,,,,,,,,,,,,,,,,,,,,,,,,,,,,,,,,,,,,002,001,2025-01-24_13h21.11.909,NESC3137_N400_exp,2023.2.3,59.96800107422217,2025-01-24 13h30.43.273490 -0400,
,,,,,,,,,23,0,23,0,,,,,,,,,,,,,173.67314420000002,,,,,,,,,,,,,,,173.65806300000077,173.67314420000002,174.18319100000008,174.15705680000065,174.1570668000004,174.18974544000014,174.65685649999978,176.1583724000011,176.1427220000005,176.14273859999957,177.26010309999947,177.26010309999947,177.51088940000045,umbrella,resources/stimuli/umbrella.wav,left,left,1,247.49230000088573,left,1,0.24749230000088573,None,,,,,,,,,,,,,,,,,,,,,,,,,,,,,,,,,,,,,,,,,,,,,,,002,001,2025-01-24_13h21.11.909,NESC3137_N400_exp,2023.2.3,59.96800107422217,2025-01-24 13h30.43.273490 -0400,
,,,,,,,,,24,0,24,0,,,,,,,,,,,,,177.52697609999996,,,,,,,,,,,,,,,177.51201690000016,177.52697609999996,178.03313069999967,178.01035749999937,178.0103665000006,178.04338364000034,178.51063090000025,180.01207780000004,179.9959514000002,179.99596100000053,181.1138004000004,181.1138004000004,181.4982629999995,hammer,resources/stimuli/hammer_foil.wav,right,right,1,377.6073999997607,right,1,0.3776073999997607,None,,,,,,,,,,,,,,,,,,,,,,,,,,,,,,,,,,,,,,,,,,,,,,,002,001,2025-01-24_13h21.11.909,NESC3137_N400_exp,2023.2.3,59.96800107422217,2025-01-24 13h30.43.273490 -0400,
,,,,,,,,,25,0,25,0,,,,,,,,,,,,,181.5135191999998,,,,,,,,,,,,,,,181.4992067000003,181.5135191999998,182.01780750000034,181.99788170000102,181.99789000000055,182.03070774000082,182.49791790000017,183.99934620000022,183.9833589000009,183.98337440000068,185.10136179999972,185.10136179999972,185.33556809999936,anchor,resources/stimuli/anchor.wav,left,left,1,229.7813999994105,left,1,0.2297813999994105,None,,,,,,,,,,,,,,,,,,,,,,,,,,,,,,,,,,,,,,,,,,,,,,,002,001,2025-01-24_13h21.11.909,NESC3137_N400_exp,2023.2.3,59.96800107422217,2025-01-24 13h30.43.273490 -0400,
,,,,,,,,,26,0,26,0,,,,,,,,,,,,,185.3508868000008,,,,,,,,,,,,,,,185.33671379999942,185.3508868000008,185.85941079999975,185.83516079999936,185.83517250000114,185.86808424000048,186.35172410000087,187.85329180000008,187.83764200000041,187.83765210000092,188.9384656000002,188.9384656000002,189.1894071000006,goat,resources/stimuli/goat_foil.wav,left,right,0,249.2225000005419,left,0,0.2492225000005419,None,,,,,,,,,,,,,,,,,,,,,,,,,,,,,,,,,,,,,,,,,,,,,,,002,001,2025-01-24_13h21.11.909,NESC3137_N400_exp,2023.2.3,59.96800107422217,2025-01-24 13h30.43.273490 -0400,
,,,,,,,,,27,0,27,0,,,,,,,,,,,,,189.20449100000042,,,,,,,,,,,,,,,189.19048010000006,189.20449100000042,189.71582630000012,189.6893923000007,189.6894028000006,189.7217963399995,190.20629089999966,191.70721220000087,191.69113000000107,191.6911739999996,192.79221640000105,192.79221640000105,193.07706099999996,window,resources/stimuli/window_foil.wav,right,right,1,275.30769999975746,right,1,0.27530769999975746,None,,,,,,,,,,,,,,,,,,,,,,,,,,,,,,,,,,,,,,,,,,,,,,,002,001,2025-01-24_13h21.11.909,NESC3137_N400_exp,2023.2.3,59.96800107422217,2025-01-24 13h30.43.273490 -0400,
,,,,,,,,,28,0,28,0,,,,,,,,,,,,,193.09198319999996,,,,,,,,,,,,,,,193.07800850000058,193.09198319999996,193.5998122000001,193.57600099999945,193.57601160000013,193.60895033999952,194.09283890000006,195.59478510000008,195.5780835000005,195.57809819999966,196.6799787,196.6799787,196.9638233000005,zebra,resources/stimuli/zebra_foil.wav,right,right,1,283.17239999887533,right,1,0.28317239999887533,None,,,,,,,,,,,,,,,,,,,,,,,,,,,,,,,,,,,,,,,,,,,,,,,002,001,2025-01-24_13h21.11.909,NESC3137_N400_exp,2023.2.3,59.96800107422217,2025-01-24 13h30.43.273490 -0400,
,,,,,,,,,29,0,29,0,,,,,,,,,,,,,196.97910609999963,,,,,,,,,,,,,,,196.964818800001,196.97910609999963,197.48876329999985,197.4634919,197.46351259999938,197.49641393999957,197.9633558000005,199.46482780000042,199.44876990000012,199.44878179999978,200.56657149999955,200.56657149999955,200.81745650000084,gorilla,resources/stimuli/gorilla_foil.wav,right,right,1,244.59220000062487,right,1,0.24459220000062487,None,,,,,,,,,,,,,,,,,,,,,,,,,,,,,,,,,,,,,,,,,,,,,,,002,001,2025-01-24_13h21.11.909,NESC3137_N400_exp,2023.2.3,59.96800107422217,2025-01-24 13h30.43.273490 -0400,
,,,,,,,,,30,0,30,0,,,,,,,,,,,,,200.83356230000027,,,,,,,,,,,,,,,200.81879020000088,200.83356230000027,201.33833270000105,201.3170413000007,201.31705010000042,201.3500499399994,201.8346703999996,203.33528239999941,203.31938290000107,203.31939410000086,204.42061110000031,204.42061110000031,204.68883370000003,mushroom,resources/stimuli/mushroom.wav,left,left,1,263.03339999867603,left,1,0.26303339999867603,None,,,,,,,,,,,,,,,,,,,,,,,,,,,,,,,,,,,,,,,,,,,,,,,002,001,2025-01-24_13h21.11.909,NESC3137_N400_exp,2023.2.3,59.96800107422217,2025-01-24 13h30.43.273490 -0400,
,,,,,,,,,31,0,31,0,,,,,,,,,,,,,204.70353539999996,,,,,,,,,,,,,,,204.68975820000014,204.70353539999996,205.21542030000091,205.18773280000096,205.18774140000096,205.22070533999943,205.7045964000008,207.2058476000002,207.18981900000108,207.18983780000053,208.29101810000066,208.29101810000066,208.54231140000047,lightswitch,resources/stimuli/lightswitch_foil.wav,right,right,1,240.49100000047474,right,1,0.24049100000047474,None,,,,,,,,,,,,,,,,,,,,,,,,,,,,,,,,,,,,,,,,,,,,,,,002,001,2025-01-24_13h21.11.909,NESC3137_N400_exp,2023.2.3,59.96800107422217,2025-01-24 13h30.43.273490 -0400,
,,,,,,,,,32,0,32,0,,,,,,,,,,,,,208.55721369999992,,,,,,,,,,,,,,,208.5435008000004,208.55721369999992,209.0578327000003,209.04149590000088,209.0415111000002,209.05779971999965,209.54171099999985,211.0437266000008,211.02724789999957,211.02725590000045,212.14472240000032,212.14472240000032,212.42900030000055,dresser,resources/stimuli/dresser.wav,left,left,1,274.9385000006441,left,1,0.2749385000006441,None,,,,,,,,,,,,,,,,,,,,,,,,,,,,,,,,,,,,,,,,,,,,,,,002,001,2025-01-24_13h21.11.909,NESC3137_N400_exp,2023.2.3,59.96800107422217,2025-01-24 13h30.43.273490 -0400,
,,,,,,,,,33,0,33,0,,,,,,,,,,,,,212.4445577000006,,,,,,,,,,,,,,,212.42994360000012,212.4445577000006,212.95276130000093,212.92844069999956,212.92845020000095,212.96144183999934,213.42885130000104,214.9303273000005,214.9140335000011,214.91404710000097,216.0321765000008,216.0321765000008,216.28295470000012,shoe,resources/stimuli/shoe_foil.wav,right,right,1,242.62850000013714,right,1,0.24262850000013714,None,,,,,,,,,,,,,,,,,,,,,,,,,,,,,,,,,,,,,,,,,,,,,,,002,001,2025-01-24_13h21.11.909,NESC3137_N400_exp,2023.2.3,59.96800107422217,2025-01-24 13h30.43.273490 -0400,
,,,,,,,,,34,0,34,0,,,,,,,,,,,,,216.29825739999978,,,,,,,,,,,,,,,216.28388350000023,216.29825739999978,216.80855970000084,216.78341650000038,216.7834256999995,216.81641124000055,217.2827072,218.7840395000003,218.76807910000025,218.76809660000072,219.88652739999998,219.88652739999998,220.12012900000082,vest,resources/stimuli/vest_foil.wav,right,right,1,221.13639999952284,right,1,0.22113639999952284,None,,,,,,,,,,,,,,,,,,,,,,,,,,,,,,,,,,,,,,,,,,,,,,,002,001,2025-01-24_13h21.11.909,NESC3137_N400_exp,2023.2.3,59.96800107422217,2025-01-24 13h30.43.273490 -0400,
,,,,,,,,,35,0,35,0,,,,,,,,,,,,,220.13617970000087,,,,,,,,,,,,,,,220.12162470000112,220.13617970000087,220.64013840000007,220.62040519999937,220.6204140000009,220.65343103999987,221.1199161000004,222.6213630000002,222.60512000000017,222.60513250000076,223.7229595000008,223.7229595000008,224.05801799999972,flower,resources/stimuli/flower_foil.wav,right,right,1,320.1371000013751,right,1,0.3201371000013751,None,,,,,,,,,,,,,,,,,,,,,,,,,,,,,,,,,,,,,,,,,,,,,,,002,001,2025-01-24_13h21.11.909,NESC3137_N400_exp,2023.2.3,59.96800107422217,2025-01-24 13h30.43.273490 -0400,
,,,,,,,,,36,0,36,0,,,,,,,,,,,,,224.07271779999974,,,,,,,,,,,,,,,224.05891220000012,224.07271779999974,224.58220269999947,224.5573306999995,224.55734180000036,224.59002334000036,225.0573198000002,226.55868139999984,226.5422966999995,226.5423112999997,227.66033470000002,227.66033470000002,228.02793370000109,rabbit,resources/stimuli/rabbit.wav,left,left,1,351.0154000014154,left,1,0.3510154000014154,None,,,,,,,,,,,,,,,,,,,,,,,,,,,,,,,,,,,,,,,,,,,,,,,002,001,2025-01-24_13h21.11.909,NESC3137_N400_exp,2023.2.3,59.96800107422217,2025-01-24 13h30.43.273490 -0400,
,,,,,,,,,37,0,37,0,,,,,,,,,,,,,228.04345620000095,,,,,,,,,,,,,,,228.0289659000009,228.04345620000095,228.5515015000001,228.5281954000002,228.52820509999947,228.56118473999925,229.02774379999937,230.52910150000025,230.51314439999987,230.5131536000008,231.63083840000036,231.63083840000036,231.86533650000092,windmill,resources/stimuli/windmill_foil.wav,right,right,1,228.96360000049754,right,1,0.22896360000049754,None,,,,,,,,,,,,,,,,,,,,,,,,,,,,,,,,,,,,,,,,,,,,,,,002,001,2025-01-24_13h21.11.909,NESC3137_N400_exp,2023.2.3,59.96800107422217,2025-01-24 13h30.43.273490 -0400,
,,,,,,,,,38,0,38,0,,,,,,,,,,,,,231.88062890000037,,,,,,,,,,,,,,,231.86645669999962,231.88062890000037,232.38695519999965,232.36484290000044,232.36485350000112,232.39780634000056,232.88151479999942,234.3836420000007,234.3669589000001,234.36696739999934,235.46864210000058,235.46864210000058,235.7031951000008,ring,resources/stimuli/ring_foil.wav,right,right,1,230.96819999955187,right,1,0.23096819999955187,None,,,,,,,,,,,,,,,,,,,,,,,,,,,,,,,,,,,,,,,,,,,,,,,002,001,2025-01-24_13h21.11.909,NESC3137_N400_exp,2023.2.3,59.96800107422217,2025-01-24 13h30.43.273490 -0400,
,,,,,,,,,39,0,39,0,,,,,,,,,,,,,235.71798649999982,,,,,,,,,,,,,,,235.70412279999982,235.71798649999982,236.22276469999997,236.2019521000002,236.20196190000024,236.2349211399993,236.71885629999997,238.2202245999997,238.2042397999994,238.20425030000115,239.30528720000075,239.30528720000075,239.53961639999943,lemon,resources/stimuli/lemon_foil.wav,right,right,1,226.4058999990084,right,1,0.2264058999990084,None,,,,,,,,,,,,,,,,,,,,,,,,,,,,,,,,,,,,,,,,,,,,,,,002,001,2025-01-24_13h21.11.909,NESC3137_N400_exp,2023.2.3,59.96800107422217,2025-01-24 13h30.43.273490 -0400,
,,,,,,,,,40,0,40,0,,,,,,,,,,,,,239.55492220000087,,,,,,,,,,,,,,,239.54054840000026,239.55492220000087,240.0639959,240.03914219999933,240.03915589999997,240.07204914000033,240.53930220000075,242.0411896000005,242.02456660000098,242.02457529999992,243.14325790000112,243.14325790000112,243.37688960000014,grapes,resources/stimuli/grapes_foil.wav,right,right,1,219.85490000042773,right,1,0.21985490000042773,None,,,,,,,,,,,,,,,,,,,,,,,,,,,,,,,,,,,,,,,,,,,,,,,002,001,2025-01-24_13h21.11.909,NESC3137_N400_exp,2023.2.3,59.96800107422217,2025-01-24 13h30.43.273490 -0400,
,,,,,,,,,41,0,41,0,,,,,,,,,,,,,243.39222809999956,,,,,,,,,,,,,,,243.3780611000002,243.39222809999956,243.89842839999983,243.87636740000016,243.87637540000105,243.9093714400002,244.39315410000017,245.89438080000036,245.87844550000045,245.87845770000058,246.97956929999964,246.97956929999964,247.24744199999986,hanger,resources/stimuli/hanger_foil.wav,right,right,1,256.1575999989145,right,1,0.2561575999989145,None,,,,,,,,,,,,,,,,,,,,,,,,,,,,,,,,,,,,,,,,,,,,,,,002,001,2025-01-24_13h21.11.909,NESC3137_N400_exp,2023.2.3,59.96800107422217,2025-01-24 13h30.43.273490 -0400,
,,,,,,,,,42,0,42,0,,,,,,,,,,,,,247.26252310000018,,,,,,,,,,,,,,,247.24895900000047,247.26252310000018,247.77314250000018,247.74686289999954,247.74687149999954,247.77980723999974,248.26459670000077,249.765199200001,249.74887230000058,249.74889020000046,250.85028930000044,250.85028930000044,251.15127980000034,tree,resources/stimuli/tree.wav,left,left,1,289.10129999894707,left,1,0.28910129999894707,None,,,,,,,,,,,,,,,,,,,,,,,,,,,,,,,,,,,,,,,,,,,,,,,002,001,2025-01-24_13h21.11.909,NESC3137_N400_exp,2023.2.3,59.96800107422217,2025-01-24 13h30.43.273490 -0400,
,,,,,,,,,43,0,43,0,,,,,,,,,,,,,251.16638389999935,,,,,,,,,,,,,,,251.1524012000009,251.16638389999935,251.7033351000009,251.6508133999996,251.65082620000067,251.71715788000003,252.1509342999998,253.65235980000034,253.63692300000002,253.63693670000066,254.75401760000022,254.75401760000022,255.02150690000053,salt,resources/stimuli/salt.wav,left,left,1,256.87119999929564,left,1,0.25687119999929564,None,,,,,,,,,,,,,,,,,,,,,,,,,,,,,,,,,,,,,,,,,,,,,,,002,001,2025-01-24_13h21.11.909,NESC3137_N400_exp,2023.2.3,59.96800107422217,2025-01-24 13h30.43.273490 -0400,
,,,,,,,,,44,0,44,0,0,0,0,0,,,,,,,,,258.8913687000004,,,,,,,,,,,,,,,255.02248409999993,255.03683339999952,255.56193480000002,255.52120420000028,255.5212150999996,255.5707769600007,256.0214629000002,257.52282019999984,257.50696360000074,257.5069791999995,258.62463240000034,258.62463240000034,258.8759064999995,watermelon,resources/stimuli/watermelon_foil.wav,right,right,1,242.39010000019334,right,1,0.24239010000019334,None,258.8768980999994,258.8913687000004,288.88884470000085,288.88884470000085,288.90490339999997,291.8918377000009,space,2.9948614000004454,None,,,,,,,,,,,,,,,,,,,,,,,,,,,,,,,,,,,,,,002,001,2025-01-24_13h21.11.909,NESC3137_N400_exp,2023.2.3,59.96800107422217,2025-01-24 13h30.43.273490 -0400,
,,,,,,,,,44,0,44,0,,,,,,,,,,,,,,,,,,,,,,,,,,,,,,,,,,,,,,,,,,,,,,,,,,,,,,,,,,,,,,,,,,,,,,,,,,,,,,,,,,,,,,,,,,,,,,,,,002,001,2025-01-24_13h21.11.909,NESC3137_N400_exp,2023.2.3,59.96800107422217,2025-01-24 13h30.43.273490 -0400,
,,,,,,,,,45,0,45,0,,,,,,,,,,,,,291.9077304000002,,,,,,,,,,,,,,,291.8923596000004,291.9077304000002,292.4147379999995,292.39159629999995,292.3916059000003,292.42453164000074,292.891428500001,294.3930300000011,294.3768903,294.37690160000056,295.4947666999997,295.4947666999997,295.86231810000027,axe,resources/stimuli/axe.wav,left,left,1,364.1531000012037,left,1,0.3641531000012037,None,,,,,,,,,,,,,,,,,,,,,,,,,,,,,,,,,,,,,,,,,,,,,,,002,001,2025-01-24_13h21.11.909,NESC3137_N400_exp,2023.2.3,59.96800107422217,2025-01-24 13h30.43.273490 -0400,
,,,,,,,,,46,0,46,0,,,,,,,,,,,,,295.87765690000015,,,,,,,,,,,,,,,295.8631915999995,295.87765690000015,296.3783825999999,296.36222369999996,296.36224310000034,296.37841391999956,296.86222910000106,298.3635997000001,298.3474437999994,298.3474575,299.46605590000036,299.46605590000036,299.6837505000003,suitcase,resources/stimuli/suitcase_foil.wav,right,right,1,201.23470000180532,right,1,0.20123470000180532,None,,,,,,,,,,,,,,,,,,,,,,,,,,,,,,,,,,,,,,,,,,,,,,,002,001,2025-01-24_13h21.11.909,NESC3137_N400_exp,2023.2.3,59.96800107422217,2025-01-24 13h30.43.273490 -0400,
,,,,,,,,,47,0,47,0,,,,,,,,,,,,,299.69821670000056,,,,,,,,,,,,,,,299.68466249999983,299.69821670000056,300.2047383000008,300.18333709999933,300.1833452999999,300.2163458400006,300.69935989999976,302.20164359999944,302.18486420000045,302.18487989999994,303.2859182000011,303.2859182000011,303.5208440999995,barrel,resources/stimuli/barrel_foil.wav,right,right,1,221.42759999951522,right,1,0.22142759999951522,None,,,,,,,,,,,,,,,,,,,,,,,,,,,,,,,,,,,,,,,,,,,,,,,002,001,2025-01-24_13h21.11.909,NESC3137_N400_exp,2023.2.3,59.96800107422217,2025-01-24 13h30.43.273490 -0400,
,,,,,,,,,48,0,48,0,,,,,,,,,,,,,303.53533550000066,,,,,,,,,,,,,,,303.52175739999984,303.53533550000066,304.044897400001,304.0195846000006,304.0195963999995,304.0525532400003,304.53666429999976,306.0388280999996,306.02172489999975,306.0217398999994,307.1229027999998,307.1229027999998,307.3580538999995,bicycle,resources/stimuli/bicycle.wav,left,left,1,224.69730000011623,left,1,0.22469730000011623,None,,,,,,,,,,,,,,,,,,,,,,,,,,,,,,,,,,,,,,,,,,,,,,,002,001,2025-01-24_13h21.11.909,NESC3137_N400_exp,2023.2.3,59.96800107422217,2025-01-24 13h30.43.273490 -0400,
,,,,,,,,,49,0,49,0,,,,,,,,,,,,,307.37255110000115,,,,,,,,,,,,,,,307.3589314000001,307.37255110000115,307.87771559999965,307.85716870000033,307.85717979999936,307.88982544000066,308.3739182999998,309.87497690000055,309.8589076999997,309.8589186999998,310.9601627000011,310.9601627000011,311.1950689000005,cat,resources/stimuli/cat.wav,left,left,1,226.7974000005779,left,1,0.2267974000005779,None,,,,,,,,,,,,,,,,,,,,,,,,,,,,,,,,,,,,,,,,,,,,,,,002,001,2025-01-24_13h21.11.909,NESC3137_N400_exp,2023.2.3,59.96800107422217,2025-01-24 13h30.43.273490 -0400,
,,,,,,,,,50,0,50,0,,,,,,,,,,,,,311.2098256999998,,,,,,,,,,,,,,,311.1965273000005,311.2098256999998,311.7149126000004,311.6947282000001,311.69473649999964,311.72777224000095,312.2108489000002,313.71237980000114,313.6967896999995,313.69679859999997,314.7974436000004,314.7974436000004,315.0817578999995,bear,resources/stimuli/bear_foil.wav,right,right,1,278.3612000002904,right,1,0.2783612000002904,None,,,,,,,,,,,,,,,,,,,,,,,,,,,,,,,,,,,,,,,,,,,,,,,002,001,2025-01-24_13h21.11.909,NESC3137_N400_exp,2023.2.3,59.96800107422217,2025-01-24 13h30.43.273490 -0400,
,,,,,,,,,51,0,51,0,,,,,,,,,,,,,315.09716859999935,,,,,,,,,,,,,,,315.0827294999999,315.09716859999935,315.6016023000011,315.5812270999995,315.5812351000004,315.61423444000104,316.0814988000002,317.58286450000014,317.56666550000045,317.56667709999965,318.6845847000004,318.6845847000004,318.90301290000025,basket,resources/stimuli/basket_foil.wav,right,right,1,214.21460000055959,right,1,0.21421460000055959,None,,,,,,,,,,,,,,,,,,,,,,,,,,,,,,,,,,,,,,,,,,,,,,,002,001,2025-01-24_13h21.11.909,NESC3137_N400_exp,2023.2.3,59.96800107422217,2025-01-24 13h30.43.273490 -0400,
,,,,,,,,,52,0,52,0,,,,,,,,,,,,,318.9175070000001,,,,,,,,,,,,,,,318.9039248000008,318.9175070000001,319.4348829999999,319.4019571000008,319.4019719000007,319.4349035400006,319.9185670000006,321.4199083000003,321.4039150999997,321.40392690000044,322.5050750999999,322.5050750999999,322.7558592000005,wineglass,resources/stimuli/wineglass.wav,left,left,1,234.90450000099372,left,1,0.23490450000099372,None,,,,,,,,,,,,,,,,,,,,,,,,,,,,,,,,,,,,,,,,,,,,,,,002,001,2025-01-24_13h21.11.909,NESC3137_N400_exp,2023.2.3,59.96800107422217,2025-01-24 13h30.43.273490 -0400,
,,,,,,,,,53,0,53,0,,,,,,,,,,,,,322.77129220000097,,,,,,,,,,,,,,,322.7567727000005,322.77129220000097,323.2788123999999,323.2558337999999,323.2558428000011,323.28872763999937,323.75570250000055,325.2572065000004,325.24104330000046,325.24105939999936,326.3589838000007,326.3589838000007,326.6262803000009,flag,resources/stimuli/flag.wav,left,left,1,252.1697000011045,left,1,0.2521697000011045,None,,,,,,,,,,,,,,,,,,,,,,,,,,,,,,,,,,,,,,,,,,,,,,,002,001,2025-01-24_13h21.11.909,NESC3137_N400_exp,2023.2.3,59.96800107422217,2025-01-24 13h30.43.273490 -0400,
,,,,,,,,,54,0,54,0,,,,,,,,,,,,,326.64232059999995,,,,,,,,,,,,,,,326.62716809999984,326.64232059999995,327.1469262999999,327.1261402,327.12614849999954,327.15915694000034,327.6262562000011,329.12769560000015,329.1114589000008,329.1114698000001,330.2294978000009,330.2294978000009,330.48084200000085,pipe,resources/stimuli/pipe_foil.wav,right,right,1,238.1107000001066,right,1,0.2381107000001066,None,,,,,,,,,,,,,,,,,,,,,,,,,,,,,,,,,,,,,,,,,,,,,,,002,001,2025-01-24_13h21.11.909,NESC3137_N400_exp,2023.2.3,59.96800107422217,2025-01-24 13h30.43.273490 -0400,
,,,,,,,,,55,0,55,0,,,,,,,,,,,,,330.49564889999965,,,,,,,,,,,,,,,330.4817872000003,330.49564889999965,331.0014329000005,330.97994199999994,330.9799543000008,331.0128782400003,331.4968573999995,332.99837429999934,332.98206050000044,332.98206910000044,334.0833590000002,334.0833590000002,334.5179733999994,bow,resources/stimuli/bow_foil.wav,right,right,1,424.3296000004193,right,1,0.4243296000004193,None,,,,,,,,,,,,,,,,,,,,,,,,,,,,,,,,,,,,,,,,,,,,,,,002,001,2025-01-24_13h21.11.909,NESC3137_N400_exp,2023.2.3,59.96800107422217,2025-01-24 13h30.43.273490 -0400,
,,,,,,,,,56,0,56,0,,,,,,,,,,,,,334.5334961000008,,,,,,,,,,,,,,,334.51914940000097,334.5334961000008,335.0338071999995,335.0175209000008,335.01753009999993,335.03374371999945,335.5344834999996,337.03559479999967,337.01939200000015,337.01940230000037,338.1206075000009,338.1206075000009,338.5222310999998,fryingpan,resources/stimuli/fryingpan.wav,left,left,1,387.0046000010916,left,1,0.3870046000010916,None,,,,,,,,,,,,,,,,,,,,,,,,,,,,,,,,,,,,,,,,,,,,,,,002,001,2025-01-24_13h21.11.909,NESC3137_N400_exp,2023.2.3,59.96800107422217,2025-01-24 13h30.43.273490 -0400,
,,,,,,,,,57,0,57,0,,,,,,,,,,,,,338.53709569999955,,,,,,,,,,,,,,,338.5237281999998,338.53709569999955,339.0441888999994,339.0212379000004,339.02125590000105,339.05424253999956,339.5382817000009,341.0395535000007,341.0234113000006,341.023423300001,342.1246489999994,342.1246489999994,342.3756271000002,butterfly,resources/stimuli/butterfly_foil.wav,right,right,1,238.81749999964086,right,1,0.23881749999964086,None,,,,,,,,,,,,,,,,,,,,,,,,,,,,,,,,,,,,,,,,,,,,,,,002,001,2025-01-24_13h21.11.909,NESC3137_N400_exp,2023.2.3,59.96800107422217,2025-01-24 13h30.43.273490 -0400,
,,,,,,,,,58,0,58,0,,,,,,,,,,,,,342.39088410000113,,,,,,,,,,,,,,,342.3765211000009,342.39088410000113,342.90214229999947,342.87511070000073,342.8751200000006,342.9081065400002,343.3752525,344.87679709999975,344.86059340000065,344.860603000001,345.97911139999997,345.97911139999997,346.29596330000095,stove,resources/stimuli/stove.wav,left,left,1,312.2644000013679,left,1,0.3122644000013679,None,,,,,,,,,,,,,,,,,,,,,,,,,,,,,,,,,,,,,,,,,,,,,,,002,001,2025-01-24_13h21.11.909,NESC3137_N400_exp,2023.2.3,59.96800107422217,2025-01-24 13h30.43.273490 -0400,
,,,,,,,,,59,0,59,0,,,,,,,,,,,,,346.31217280000055,,,,,,,,,,,,,,,346.29684129999987,346.31217280000055,346.8166641000007,346.79579829999966,346.79580759999953,346.82879214000025,347.295806600001,348.79737059999934,348.7818686999999,348.7818846000009,349.899370000001,349.899370000001,350.1837538,fox,resources/stimuli/fox_foil.wav,right,right,1,279.7283999989304,right,1,0.2797283999989304,None,,,,,,,,,,,,,,,,,,,,,,,,,,,,,,,,,,,,,,,,,,,,,,,002,001,2025-01-24_13h21.11.909,NESC3137_N400_exp,2023.2.3,59.96800107422217,2025-01-24 13h30.43.273490 -0400,
,,,,,,,,,60,0,60,0,,,,,,,,,,,,,350.1987267000004,,,,,,,,,,,,,,,350.184737900001,350.1987267000004,350.7068141,350.68306549999943,350.6830886000007,350.71604443999934,351.19985350000024,352.7013946999996,352.68521390000024,352.6852232000001,353.7864919000003,353.7864919000003,353.8369627000011,guitar,resources/stimuli/guitar_foil.wav,right,right,1,40.401799999017385,right,1,0.040401799999017385,None,,,,,,,,,,,,,,,,,,,,,,,,,,,,,,,,,,,,,,,,,,,,,,,002,001,2025-01-24_13h21.11.909,NESC3137_N400_exp,2023.2.3,59.96800107422217,2025-01-24 13h30.43.273490 -0400,
,,,,,,,,,61,0,61,0,,,,,,,,,,,,,353.8528905000003,,,,,,,,,,,,,,,353.8378702000009,353.8528905000003,354.36404030000085,354.33647050000036,354.3364794000008,354.36945893999984,354.8371124999994,356.3382053999994,356.3221228000002,356.3221334000009,357.4404370000011,357.4404370000011,357.8241954999994,lamp,resources/stimuli/lamp.wav,left,left,1,378.90279999919585,left,1,0.37890279999919585,None,,,,,,,,,,,,,,,,,,,,,,,,,,,,,,,,,,,,,,,,,,,,,,,002,001,2025-01-24_13h21.11.909,NESC3137_N400_exp,2023.2.3,59.96800107422217,2025-01-24 13h30.43.273490 -0400,
,,,,,,,,,62,0,62,0,,,,,,,,,,,,,357.8398787999995,,,,,,,,,,,,,,,357.82510490000095,357.8398787999995,,358.3248689000011,358.32488150000063,358.3581615399995,358.8247406999999,360.32539480000014,360.3094151000005,360.30942479999976,361.4274494000001,361.4274494000001,361.76226339999994,apple,resources/stimuli/apple.wav,left,left,1,319.88079999973706,left,1,0.31988079999973706,None,,,,,,,,,,,,,,,,,,,,,,,,,,,,,,,,,,,,,,,,,,,,,,,002,001,2025-01-24_13h21.11.909,NESC3137_N400_exp,2023.2.3,59.96800107422217,2025-01-24 13h30.43.273490 -0400,
,,,,,,,,,63,0,63,0,,,,,,,,,,,,,361.77693120000004,,,,,,,,,,,,,,,361.7631454000002,361.77693120000004,362.2867973000011,362.261273600001,362.2612874000006,362.2941489399997,362.76158750000104,364.2628741999997,364.24649990000034,364.2465097000004,365.3646616999995,365.3646616999995,365.7489679999999,mitten,resources/stimuli/mitten.wav,left,left,1,382.48600000042643,left,1,0.38248600000042643,None,,,,,,,,,,,,,,,,,,,,,,,,,,,,,,,,,,,,,,,,,,,,,,,002,001,2025-01-24_13h21.11.909,NESC3137_N400_exp,2023.2.3,59.96800107422217,2025-01-24 13h30.43.273490 -0400,
,,,,,,,,,64,0,64,0,,,,,,,,,,,,,365.764281400001,,,,,,,,,,,,,,,365.74988680000024,365.764281400001,366.272042300001,366.2487191,366.24873409999964,366.28173974000094,366.7485904999994,368.2501420999997,368.2345170999997,368.2345255,369.3524378000002,369.3524378000002,369.8530155999997,glasses,resources/stimuli/glasses_foil.wav,right,right,1,498.7838999986707,right,1,0.4987838999986707,None,,,,,,,,,,,,,,,,,,,,,,,,,,,,,,,,,,,,,,,,,,,,,,,002,001,2025-01-24_13h21.11.909,NESC3137_N400_exp,2023.2.3,59.96800107422217,2025-01-24 13h30.43.273490 -0400,
,,,,,,,,,65,0,65,0,,,,,,,,,,,,,369.8684465000006,,,,,,,,,,,,,,,369.8539459000003,369.8684465000006,370.377548800001,370.35263920000034,370.3526492000001,370.38561294000067,370.85285380000096,372.35473920000004,372.33788579999964,372.33789629999956,373.45667289999983,373.45667289999983,374.2076181000011,airplane,resources/stimuli/airplane.wav,left,left,1,738.898399999016,left,1,0.738898399999016,None,,,,,,,,,,,,,,,,,,,,,,,,,,,,,,,,,,,,,,,,,,,,,,,002,001,2025-01-24_13h21.11.909,NESC3137_N400_exp,2023.2.3,59.96800107422217,2025-01-24 13h30.43.273490 -0400,
,,,,,,,,,66,0,66,0,,,,,,,,,,,,,374.22360950000075,,,,,,,,,,,,,,,374.20854560000043,374.22360950000075,374.7338990999997,374.7068469000005,374.7068553000008,374.73984284000073,375.207112600001,376.70843439999953,376.6924388000007,376.69244830000025,377.81053900000006,377.81053900000006,378.1280633000006,violin,resources/stimuli/violin.wav,left,left,1,312.39040000036766,left,1,0.31239040000036766,None,,,,,,,,,,,,,,,,,,,,,,,,,,,,,,,,,,,,,,,,,,,,,,,002,001,2025-01-24_13h21.11.909,NESC3137_N400_exp,2023.2.3,59.96800107422217,2025-01-24 13h30.43.273490 -0400,
,,,,,,,,,67,0,67,0,,,,,,,,,,,,,378.14333609999994,,,,,,,,,,,,,,,378.1290100999995,378.14333609999994,378.6517555999999,378.62743749999936,378.6274534000004,378.6604445400004,379.12762380000095,380.6291641000007,380.6136934999995,380.6137049000008,381.7309126,381.7309126,382.0151614999995,doll,resources/stimuli/doll.wav,left,left,1,280.5549000004248,left,1,0.2805549000004248,None,,,,,,,,,,,,,,,,,,,,,,,,,,,,,,,,,,,,,,,,,,,,,,,002,001,2025-01-24_13h21.11.909,NESC3137_N400_exp,2023.2.3,59.96800107422217,2025-01-24 13h30.43.273490 -0400,
,,,,,,,,,68,0,68,0,,,,,,,,,,,,,382.0307305999995,,,,,,,,,,,,,,,382.0160685999999,382.0307305999995,382.5398490000007,382.51486210000076,382.51487180000004,382.54783244000066,383.0149543000007,384.5163981000005,384.5000825999996,384.5000957000011,385.6190394000005,385.6190394000005,385.9860306999999,clock,resources/stimuli/clock_foil.wav,right,right,1,360.37519999990764,right,1,0.36037519999990764,None,,,,,,,,,,,,,,,,,,,,,,,,,,,,,,,,,,,,,,,,,,,,,,,002,001,2025-01-24_13h21.11.909,NESC3137_N400_exp,2023.2.3,59.96800107422217,2025-01-24 13h30.43.273490 -0400,
,,,,,,,,,69,0,69,0,,,,,,,,,,,,,386.0011577000005,,,,,,,,,,,,,,,385.98753410000063,386.0011577000005,386.5132898000011,386.48562630000015,386.48563599999943,386.51851273999966,387.00221559999954,388.50356190000093,388.4876548000011,388.48766500000056,389.58873610000046,389.58873610000046,389.873022400001,mountain,resources/stimuli/mountain_foil.wav,right,right,1,278.510299998743,right,1,0.278510299998743,None,,,,,,,,,,,,,,,,,,,,,,,,,,,,,,,,,,,,,,,,,,,,,,,002,001,2025-01-24_13h21.11.909,NESC3137_N400_exp,2023.2.3,59.96800107422217,2025-01-24 13h30.43.273490 -0400,
,,,,,,,,,70,0,70,0,,,,,,,,,,,,,389.88825850000103,,,,,,,,,,,,,,,389.8739265000004,389.88825850000103,390.3938665000005,390.372652,390.37266180000006,390.40560243999937,390.8728678000007,392.37417579999965,392.35804800000005,392.3580576000004,393.4766486999997,393.4766486999997,393.71026829999937,book,resources/stimuli/book_foil.wav,right,right,1,230.23680000005697,right,1,0.23023680000005697,None,,,,,,,,,,,,,,,,,,,,,,,,,,,,,,,,,,,,,,,,,,,,,,,002,001,2025-01-24_13h21.11.909,NESC3137_N400_exp,2023.2.3,59.96800107422217,2025-01-24 13h30.43.273490 -0400,
,,,,,,,,,71,0,71,0,,,,,,,,,,,,,393.7259195000006,,,,,,,,,,,,,,,393.7111567000011,393.7259195000006,394.2340389000001,394.20975739999994,394.20976599999995,394.24278974000083,394.71016390000113,396.21132450000005,396.1952732999998,396.1952904000009,397.31302979999964,397.31302979999964,397.5808756000006,seal,resources/stimuli/seal.wav,left,left,1,266.16049999938696,left,1,0.26616049999938696,None,,,,,,,,,,,,,,,,,,,,,,,,,,,,,,,,,,,,,,,,,,,,,,,002,001,2025-01-24_13h21.11.909,NESC3137_N400_exp,2023.2.3,59.96800107422217,2025-01-24 13h30.43.273490 -0400,
,,,,,,,,,72,0,72,0,,,,,,,,,,,,,397.5959576000005,,,,,,,,,,,,,,,397.5817612999999,397.5959576000005,398.10257249999995,398.0803383000002,398.080348200001,398.1132357399998,398.5804272000005,400.081941800001,400.06583950000095,400.06585430000086,401.1843898999996,401.1843898999996,401.41814180000074,gun,resources/stimuli/gun.wav,left,left,1,227.25230000105512,left,1,0.22725230000105512,None,,,,,,,,,,,,,,,,,,,,,,,,,,,,,,,,,,,,,,,,,,,,,,,002,001,2025-01-24_13h21.11.909,NESC3137_N400_exp,2023.2.3,59.96800107422217,2025-01-24 13h30.43.273490 -0400,
,,,,,,,,,73,0,73,0,,,,,,,,,,,,,401.4332816999995,,,,,,,,,,,,,,,401.41915040000094,401.4332816999995,401.94563240000025,401.9174326000011,401.9174407999999,401.9504691399994,402.43418870000096,403.93563540000105,403.91956820000087,403.9195957000011,405.0208616,405.0208616,405.37171750000016,wagon,resources/stimuli/wagon.wav,left,left,1,334.3339000002743,left,1,0.3343339000002743,None,,,,,,,,,,,,,,,,,,,,,,,,,,,,,,,,,,,,,,,,,,,,,,,002,001,2025-01-24_13h21.11.909,NESC3137_N400_exp,2023.2.3,59.96800107422217,2025-01-24 13h30.43.273490 -0400,
,,,,,,,,,74,0,74,0,,,,,,,,,,,,,405.38712680000026,,,,,,,,,,,,,,,405.3726299000009,405.38712680000026,405.8965628999995,405.8713249000011,405.8713327000005,405.9043346400009,406.3716134999995,407.8729235999999,407.8567574000008,407.85678689999986,408.9754587000007,408.9754587000007,409.2764007000005,elephant,resources/stimuli/elephant.wav,left,left,1,299.9165000001085,left,1,0.2999165000001085,None,,,,,,,,,,,,,,,,,,,,,,,,,,,,,,,,,,,,,,,,,,,,,,,002,001,2025-01-24_13h21.11.909,NESC3137_N400_exp,2023.2.3,59.96800107422217,2025-01-24 13h30.43.273490 -0400,
,,,,,,,,,75,0,75,0,,,,,,,,,,,,,409.29168539999955,,,,,,,,,,,,,,,409.2772724000006,409.29168539999955,409.7978887999998,409.77519949999987,409.77520770000046,409.80818323999995,410.2925802999998,411.79358890000003,411.777463800001,411.7774733999995,412.8787577000003,412.8787577000003,413.19708379999975,deer,resources/stimuli/deer.wav,left,left,1,300.649799999519,left,1,0.300649799999519,None,,,,,,,,,,,,,,,,,,,,,,,,,,,,,,,,,,,,,,,,,,,,,,,002,001,2025-01-24_13h21.11.909,NESC3137_N400_exp,2023.2.3,59.96800107422217,2025-01-24 13h30.43.273490 -0400,
,,,,,,,,,76,0,76,0,,,,,,,,,,,,,413.2116853000007,,,,,,,,,,,,,,,413.19796750000023,413.2116853000007,413.72031980000065,413.69571800000085,413.69572680000056,413.72875304000047,414.2128451000008,415.71428410000044,415.69800899999973,415.6980211000009,416.7992033999999,416.7992033999999,417.0836409000003,drum,resources/stimuli/drum.wav,left,left,1,276.52519999901415,left,1,0.27652519999901415,None,,,,,,,,,,,,,,,,,,,,,,,,,,,,,,,,,,,,,,,,,,,,,,,002,001,2025-01-24_13h21.11.909,NESC3137_N400_exp,2023.2.3,59.96800107422217,2025-01-24 13h30.43.273490 -0400,
,,,,,,,,,77,0,77,0,,,,,,,,,,,,,417.09894970000096,,,,,,,,,,,,,,,417.0848879999994,417.09894970000096,417.60909549999997,417.5831132000003,417.58312210000076,417.61613824000017,418.10055009999996,419.60131250000086,419.5851342999995,419.5851536000009,420.6873415000009,420.6873415000009,421.1547879999998,pear,resources/stimuli/pear_foil.wav,right,right,1,460.2476000000024,right,1,0.4602476000000024,None,,,,,,,,,,,,,,,,,,,,,,,,,,,,,,,,,,,,,,,,,,,,,,,002,001,2025-01-24_13h21.11.909,NESC3137_N400_exp,2023.2.3,59.96800107422217,2025-01-24 13h30.43.273490 -0400,
,,,,,,,,,78,0,78,0,,,,,,,,,,,,,421.1696475000008,,,,,,,,,,,,,,,421.1557114999996,421.1696475000008,421.6776513999994,421.65366619999986,421.6536761999996,421.68662104,422.171569600001,423.67277470000045,423.655845700001,423.6558588000007,424.75743019999936,424.75743019999936,425.37491059999957,dog,resources/stimuli/dog_foil.wav,right,right,1,605.5918000001839,right,1,0.6055918000001839,None,,,,,,,,,,,,,,,,,,,,,,,,,,,,,,,,,,,,,,,,,,,,,,,002,001,2025-01-24_13h21.11.909,NESC3137_N400_exp,2023.2.3,59.96800107422217,2025-01-24 13h30.43.273490 -0400,
