Word,setup_loop.thisRepN,setup_loop.thisTrialN,setup_loop.thisN,setup_loop.thisIndex,shuffle_loop.thisRepN,shuffle_loop.thisTrialN,shuffle_loop.thisN,shuffle_loop.thisIndex,trials.thisRepN,trials.thisTrialN,trials.thisN,trials.thisIndex,trialsBreak.thisRepN,trialsBreak.thisTrialN,trialsBreak.thisN,trialsBreak.thisIndex,trials_2.thisRepN,trials_2.thisTrialN,trials_2.thisN,trials_2.thisIndex,trialsBreak2.thisRepN,trialsBreak2.thisTrialN,trialsBreak2.thisN,trialsBreak2.thisIndex,thisRow.t,notes,LSL_Stream.started,LSL_Stream.stopped,setup.started,setup.stopped,shuffle_stimuli.started,shuffle_stimuli.stopped,Instructions1.started,imageInstruct1.started,key_resp_Instruct1.started,Instructions1.stopped,key_resp_Instruct1.keys,key_resp_Instruct1.rt,key_resp_Instruct1.duration,fixation.started,cross.started,cross.stopped,fixation.stopped,stimuli_prez_1.started,imagePrez1.started,audioPrez1.started,imagePrez1.stopped,stimuli_prez_1.stopped,response.started,image_resp_p1.started,p1_resp_stim.started,response.stopped,Image,Audio,response_p1,corchoice_p1,Trial_Score_p1,Trial_RT_p1,p1_resp_stim.keys,p1_resp_stim.corr,p1_resp_stim.rt,p1_resp_stim.duration,checkpoint.started,imageBreak.started,imageCont.started,key_break.started,imageBreak.stopped,checkpoint.stopped,key_break.keys,key_break.rt,key_break.duration,Instructions2.started,imageInstruct1_2.started,key_resp_Instruct1_2.started,Instructions2.stopped,key_resp_Instruct1_2.keys,key_resp_Instruct1_2.rt,key_resp_Instruct1_2.duration,fixation_2.started,cross_2.started,cross_2.stopped,fixation_2.stopped,stimuli_prez_2.started,audioPrez2.started,imagePrez2.started,imagePrez2.stopped,stimuli_prez_2.stopped,response_2.started,image_resp_p2.started,p2_resp_stim.started,response_2.stopped,Image2,Audio2,response_p2,corchoice_p2,Trial_Score_p2,Trial_RT_p2,p2_resp_stim.keys,p2_resp_stim.corr,p2_resp_stim.rt,p2_resp_stim.duration,end.started,endscreen.started,key_resp_end.started,end.stopped,key_resp_end.keys,key_resp_end.rt,key_resp_end.duration,participant,session,date,expName,psychopyVersion,frameRate,expStart,
violin,0,0,0,169,,,,,,,,,,,,,,,,,,,,,0.24860749999061227,,0.17382480000378564,0.1741162999824155,0.1910751999821514,0.19139709998853505,,,,,,,,,,,,,,,,,,,,,,,,,,,,,,,,,,,,,,,,,,,,,,,,,,,,,,,,,,,,,,,,,,,,,,,,,,,,,,,004,001,2025-01-24_14h46.24.780,NESC3137_N400_exp,2023.2.3,59.84429711001874,2025-01-24 14h47.04.312474 -0400,
accordion,0,1,1,0,,,,,,,,,,,,,,,,,,,,,0.24860749999061227,,,,0.19153680000454187,0.19169209999381565,,,,,,,,,,,,,,,,,,,,,,,,,,,,,,,,,,,,,,,,,,,,,,,,,,,,,,,,,,,,,,,,,,,,,,,,,,,,,,,004,001,2025-01-24_14h46.24.780,NESC3137_N400_exp,2023.2.3,59.84429711001874,2025-01-24 14h47.04.312474 -0400,
sheep,0,2,2,139,,,,,,,,,,,,,,,,,,,,,0.24860749999061227,,,,0.1918506000074558,0.19199639998259954,,,,,,,,,,,,,,,,,,,,,,,,,,,,,,,,,,,,,,,,,,,,,,,,,,,,,,,,,,,,,,,,,,,,,,,,,,,,,,,004,001,2025-01-24_14h46.24.780,NESC3137_N400_exp,2023.2.3,59.84429711001874,2025-01-24 14h47.04.312474 -0400,
hanger,0,3,3,72,,,,,,,,,,,,,,,,,,,,,0.24860749999061227,,,,0.19212890000198968,0.1922744000039529,,,,,,,,,,,,,,,,,,,,,,,,,,,,,,,,,,,,,,,,,,,,,,,,,,,,,,,,,,,,,,,,,,,,,,,,,,,,,,,004,001,2025-01-24_14h46.24.780,NESC3137_N400_exp,2023.2.3,59.84429711001874,2025-01-24 14h47.04.312474 -0400,
bee,0,4,4,14,,,,,,,,,,,,,,,,,,,,,0.24860749999061227,,,,0.192410599993309,0.19260169999324717,,,,,,,,,,,,,,,,,,,,,,,,,,,,,,,,,,,,,,,,,,,,,,,,,,,,,,,,,,,,,,,,,,,,,,,,,,,,,,,004,001,2025-01-24_14h46.24.780,NESC3137_N400_exp,2023.2.3,59.84429711001874,2025-01-24 14h47.04.312474 -0400,
balloon,0,5,5,8,,,,,,,,,,,,,,,,,,,,,0.24860749999061227,,,,0.192770699999528,0.19292649999260902,,,,,,,,,,,,,,,,,,,,,,,,,,,,,,,,,,,,,,,,,,,,,,,,,,,,,,,,,,,,,,,,,,,,,,,,,,,,,,,004,001,2025-01-24_14h46.24.780,NESC3137_N400_exp,2023.2.3,59.84429711001874,2025-01-24 14h47.04.312474 -0400,
deer,0,6,6,40,,,,,,,,,,,,,,,,,,,,,0.24860749999061227,,,,0.19305929998517968,0.19318760000169277,,,,,,,,,,,,,,,,,,,,,,,,,,,,,,,,,,,,,,,,,,,,,,,,,,,,,,,,,,,,,,,,,,,,,,,,,,,,,,,004,001,2025-01-24_14h46.24.780,NESC3137_N400_exp,2023.2.3,59.84429711001874,2025-01-24 14h47.04.312474 -0400,
pot,0,7,7,123,,,,,,,,,,,,,,,,,,,,,0.24860749999061227,,,,0.1933038999850396,0.1934721999859903,,,,,,,,,,,,,,,,,,,,,,,,,,,,,,,,,,,,,,,,,,,,,,,,,,,,,,,,,,,,,,,,,,,,,,,,,,,,,,,004,001,2025-01-24_14h46.24.780,NESC3137_N400_exp,2023.2.3,59.84429711001874,2025-01-24 14h47.04.312474 -0400,
pitcher,0,8,8,121,,,,,,,,,,,,,,,,,,,,,0.24860749999061227,,,,0.19360329999472015,0.1937405999924522,,,,,,,,,,,,,,,,,,,,,,,,,,,,,,,,,,,,,,,,,,,,,,,,,,,,,,,,,,,,,,,,,,,,,,,,,,,,,,,004,001,2025-01-24_14h46.24.780,NESC3137_N400_exp,2023.2.3,59.84429711001874,2025-01-24 14h47.04.312474 -0400,
corn,0,9,9,37,,,,,,,,,,,,,,,,,,,,,0.24860749999061227,,,,0.19386699999449775,0.19399519998114556,,,,,,,,,,,,,,,,,,,,,,,,,,,,,,,,,,,,,,,,,,,,,,,,,,,,,,,,,,,,,,,,,,,,,,,,,,,,,,,004,001,2025-01-24_14h46.24.780,NESC3137_N400_exp,2023.2.3,59.84429711001874,2025-01-24 14h47.04.312474 -0400,
candle,0,10,10,25,,,,,,,,,,,,,,,,,,,,,0.24860749999061227,,,,0.19410729999071918,0.19427149998955429,,,,,,,,,,,,,,,,,,,,,,,,,,,,,,,,,,,,,,,,,,,,,,,,,,,,,,,,,,,,,,,,,,,,,,,,,,,,,,,004,001,2025-01-24_14h46.24.780,NESC3137_N400_exp,2023.2.3,59.84429711001874,2025-01-24 14h47.04.312474 -0400,
pipe,0,11,11,120,,,,,,,,,,,,,,,,,,,,,0.24860749999061227,,,,0.19450250000227243,0.1946837999857962,,,,,,,,,,,,,,,,,,,,,,,,,,,,,,,,,,,,,,,,,,,,,,,,,,,,,,,,,,,,,,,,,,,,,,,,,,,,,,,004,001,2025-01-24_14h46.24.780,NESC3137_N400_exp,2023.2.3,59.84429711001874,2025-01-24 14h47.04.312474 -0400,
fryingpan,0,12,12,59,,,,,,,,,,,,,,,,,,,,,0.24860749999061227,,,,0.19487330000265501,0.1950234999821987,,,,,,,,,,,,,,,,,,,,,,,,,,,,,,,,,,,,,,,,,,,,,,,,,,,,,,,,,,,,,,,,,,,,,,,,,,,,,,,004,001,2025-01-24_14h46.24.780,NESC3137_N400_exp,2023.2.3,59.84429711001874,2025-01-24 14h47.04.312474 -0400,
axe,0,13,13,6,,,,,,,,,,,,,,,,,,,,,0.24860749999061227,,,,0.19514949998119846,0.19530699998722412,,,,,,,,,,,,,,,,,,,,,,,,,,,,,,,,,,,,,,,,,,,,,,,,,,,,,,,,,,,,,,,,,,,,,,,,,,,,,,,004,001,2025-01-24_14h46.24.780,NESC3137_N400_exp,2023.2.3,59.84429711001874,2025-01-24 14h47.04.312474 -0400,
fox,0,14,14,57,,,,,,,,,,,,,,,,,,,,,0.24860749999061227,,,,0.1955129999842029,0.19567319998168387,,,,,,,,,,,,,,,,,,,,,,,,,,,,,,,,,,,,,,,,,,,,,,,,,,,,,,,,,,,,,,,,,,,,,,,,,,,,,,,004,001,2025-01-24_14h46.24.780,NESC3137_N400_exp,2023.2.3,59.84429711001874,2025-01-24 14h47.04.312474 -0400,
drum,0,15,15,46,,,,,,,,,,,,,,,,,,,,,0.24860749999061227,,,,0.1958100000047125,0.1959424999949988,,,,,,,,,,,,,,,,,,,,,,,,,,,,,,,,,,,,,,,,,,,,,,,,,,,,,,,,,,,,,,,,,,,,,,,,,,,,,,,004,001,2025-01-24_14h46.24.780,NESC3137_N400_exp,2023.2.3,59.84429711001874,2025-01-24 14h47.04.312474 -0400,
tree,0,16,16,163,,,,,,,,,,,,,,,,,,,,,0.24860749999061227,,,,0.19605739999678917,0.19619659997988492,,,,,,,,,,,,,,,,,,,,,,,,,,,,,,,,,,,,,,,,,,,,,,,,,,,,,,,,,,,,,,,,,,,,,,,,,,,,,,,004,001,2025-01-24_14h46.24.780,NESC3137_N400_exp,2023.2.3,59.84429711001874,2025-01-24 14h47.04.312474 -0400,
grapes,0,17,17,66,,,,,,,,,,,,,,,,,,,,,0.24860749999061227,,,,0.1963255000009667,0.19644319999497384,,,,,,,,,,,,,,,,,,,,,,,,,,,,,,,,,,,,,,,,,,,,,,,,,,,,,,,,,,,,,,,,,,,,,,,,,,,,,,,004,001,2025-01-24_14h46.24.780,NESC3137_N400_exp,2023.2.3,59.84429711001874,2025-01-24 14h47.04.312474 -0400,
bread,0,18,18,20,,,,,,,,,,,,,,,,,,,,,0.24860749999061227,,,,0.19655550000607036,0.19667889998527244,,,,,,,,,,,,,,,,,,,,,,,,,,,,,,,,,,,,,,,,,,,,,,,,,,,,,,,,,,,,,,,,,,,,,,,,,,,,,,,004,001,2025-01-24_14h46.24.780,NESC3137_N400_exp,2023.2.3,59.84429711001874,2025-01-24 14h47.04.312474 -0400,
gorilla,0,19,19,65,,,,,,,,,,,,,,,,,,,,,0.24860749999061227,,,,0.1967847000050824,0.19689609998022206,,,,,,,,,,,,,,,,,,,,,,,,,,,,,,,,,,,,,,,,,,,,,,,,,,,,,,,,,,,,,,,,,,,,,,,,,,,,,,,004,001,2025-01-24_14h46.24.780,NESC3137_N400_exp,2023.2.3,59.84429711001874,2025-01-24 14h47.04.312474 -0400,
sandwich,0,20,20,134,,,,,,,,,,,,,,,,,,,,,0.24860749999061227,,,,0.1970005999901332,0.19718839999404736,,,,,,,,,,,,,,,,,,,,,,,,,,,,,,,,,,,,,,,,,,,,,,,,,,,,,,,,,,,,,,,,,,,,,,,,,,,,,,,004,001,2025-01-24_14h46.24.780,NESC3137_N400_exp,2023.2.3,59.84429711001874,2025-01-24 14h47.04.312474 -0400,
pear,0,21,21,114,,,,,,,,,,,,,,,,,,,,,0.24860749999061227,,,,0.19731689998297952,0.19745419998071156,,,,,,,,,,,,,,,,,,,,,,,,,,,,,,,,,,,,,,,,,,,,,,,,,,,,,,,,,,,,,,,,,,,,,,,,,,,,,,,004,001,2025-01-24_14h46.24.780,NESC3137_N400_exp,2023.2.3,59.84429711001874,2025-01-24 14h47.04.312474 -0400,
salt,0,22,22,133,,,,,,,,,,,,,,,,,,,,,0.24860749999061227,,,,0.19758740000543185,0.1977150999882724,,,,,,,,,,,,,,,,,,,,,,,,,,,,,,,,,,,,,,,,,,,,,,,,,,,,,,,,,,,,,,,,,,,,,,,,,,,,,,,004,001,2025-01-24_14h46.24.780,NESC3137_N400_exp,2023.2.3,59.84429711001874,2025-01-24 14h47.04.312474 -0400,
purse,0,23,23,125,,,,,,,,,,,,,,,,,,,,,0.24860749999061227,,,,0.1978285999794025,0.1979603999934625,,,,,,,,,,,,,,,,,,,,,,,,,,,,,,,,,,,,,,,,,,,,,,,,,,,,,,,,,,,,,,,,,,,,,,,,,,,,,,,004,001,2025-01-24_14h46.24.780,NESC3137_N400_exp,2023.2.3,59.84429711001874,2025-01-24 14h47.04.312474 -0400,
hand,0,24,24,71,,,,,,,,,,,,,,,,,,,,,0.24860749999061227,,,,0.19806669998797588,0.19823360000737011,,,,,,,,,,,,,,,,,,,,,,,,,,,,,,,,,,,,,,,,,,,,,,,,,,,,,,,,,,,,,,,,,,,,,,,,,,,,,,,004,001,2025-01-24_14h46.24.780,NESC3137_N400_exp,2023.2.3,59.84429711001874,2025-01-24 14h47.04.312474 -0400,
key,0,25,25,82,,,,,,,,,,,,,,,,,,,,,0.24860749999061227,,,,0.1983397000003606,0.1984840999939479,,,,,,,,,,,,,,,,,,,,,,,,,,,,,,,,,,,,,,,,,,,,,,,,,,,,,,,,,,,,,,,,,,,,,,,,,,,,,,,004,001,2025-01-24_14h46.24.780,NESC3137_N400_exp,2023.2.3,59.84429711001874,2025-01-24 14h47.04.312474 -0400,
cloud,0,26,26,35,,,,,,,,,,,,,,,,,,,,,0.24860749999061227,,,,0.19859260000521317,0.19872580000082962,,,,,,,,,,,,,,,,,,,,,,,,,,,,,,,,,,,,,,,,,,,,,,,,,,,,,,,,,,,,,,,,,,,,,,,,,,,,,,,004,001,2025-01-24_14h46.24.780,NESC3137_N400_exp,2023.2.3,59.84429711001874,2025-01-24 14h47.04.312474 -0400,
penguin,0,27,27,116,,,,,,,,,,,,,,,,,,,,,0.24860749999061227,,,,0.19882600000710227,0.1989369000075385,,,,,,,,,,,,,,,,,,,,,,,,,,,,,,,,,,,,,,,,,,,,,,,,,,,,,,,,,,,,,,,,,,,,,,,,,,,,,,,004,001,2025-01-24_14h46.24.780,NESC3137_N400_exp,2023.2.3,59.84429711001874,2025-01-24 14h47.04.312474 -0400,
cannon,0,28,28,26,,,,,,,,,,,,,,,,,,,,,0.24860749999061227,,,,0.1990360000054352,0.19914839998818934,,,,,,,,,,,,,,,,,,,,,,,,,,,,,,,,,,,,,,,,,,,,,,,,,,,,,,,,,,,,,,,,,,,,,,,,,,,,,,,004,001,2025-01-24_14h46.24.780,NESC3137_N400_exp,2023.2.3,59.84429711001874,2025-01-24 14h47.04.312474 -0400,
necklace,0,29,29,103,,,,,,,,,,,,,,,,,,,,,0.24860749999061227,,,,0.19925350000266917,0.19941010000184178,,,,,,,,,,,,,,,,,,,,,,,,,,,,,,,,,,,,,,,,,,,,,,,,,,,,,,,,,,,,,,,,,,,,,,,,,,,,,,,004,001,2025-01-24_14h46.24.780,NESC3137_N400_exp,2023.2.3,59.84429711001874,2025-01-24 14h47.04.312474 -0400,
crown,0,30,30,39,,,,,,,,,,,,,,,,,,,,,0.24860749999061227,,,,0.199537499982398,0.19974869998986833,,,,,,,,,,,,,,,,,,,,,,,,,,,,,,,,,,,,,,,,,,,,,,,,,,,,,,,,,,,,,,,,,,,,,,,,,,,,,,,004,001,2025-01-24_14h46.24.780,NESC3137_N400_exp,2023.2.3,59.84429711001874,2025-01-24 14h47.04.312474 -0400,
umbrella,0,31,31,166,,,,,,,,,,,,,,,,,,,,,0.24860749999061227,,,,0.1998539000051096,0.19997409998904914,,,,,,,,,,,,,,,,,,,,,,,,,,,,,,,,,,,,,,,,,,,,,,,,,,,,,,,,,,,,,,,,,,,,,,,,,,,,,,,004,001,2025-01-24_14h46.24.780,NESC3137_N400_exp,2023.2.3,59.84429711001874,2025-01-24 14h47.04.312474 -0400,
toothbrush,0,32,32,161,,,,,,,,,,,,,,,,,,,,,0.24860749999061227,,,,0.2000732999877073,0.20019169998704456,,,,,,,,,,,,,,,,,,,,,,,,,,,,,,,,,,,,,,,,,,,,,,,,,,,,,,,,,,,,,,,,,,,,,,,,,,,,,,,004,001,2025-01-24_14h46.24.780,NESC3137_N400_exp,2023.2.3,59.84429711001874,2025-01-24 14h47.04.312474 -0400,
pants,0,33,33,109,,,,,,,,,,,,,,,,,,,,,0.24860749999061227,,,,0.20031919999746606,0.20047209999756888,,,,,,,,,,,,,,,,,,,,,,,,,,,,,,,,,,,,,,,,,,,,,,,,,,,,,,,,,,,,,,,,,,,,,,,,,,,,,,,004,001,2025-01-24_14h46.24.780,NESC3137_N400_exp,2023.2.3,59.84429711001874,2025-01-24 14h47.04.312474 -0400,
snail,0,34,34,144,,,,,,,,,,,,,,,,,,,,,0.24860749999061227,,,,0.20058829998015426,0.20070859999395907,,,,,,,,,,,,,,,,,,,,,,,,,,,,,,,,,,,,,,,,,,,,,,,,,,,,,,,,,,,,,,,,,,,,,,,,,,,,,,,004,001,2025-01-24_14h46.24.780,NESC3137_N400_exp,2023.2.3,59.84429711001874,2025-01-24 14h47.04.312474 -0400,
button,0,35,35,22,,,,,,,,,,,,,,,,,,,,,0.24860749999061227,,,,0.2008291999809444,0.20096580000245012,,,,,,,,,,,,,,,,,,,,,,,,,,,,,,,,,,,,,,,,,,,,,,,,,,,,,,,,,,,,,,,,,,,,,,,,,,,,,,,004,001,2025-01-24_14h46.24.780,NESC3137_N400_exp,2023.2.3,59.84429711001874,2025-01-24 14h47.04.312474 -0400,
dog,0,36,36,42,,,,,,,,,,,,,,,,,,,,,0.24860749999061227,,,,0.2011099999945145,0.2012498999829404,,,,,,,,,,,,,,,,,,,,,,,,,,,,,,,,,,,,,,,,,,,,,,,,,,,,,,,,,,,,,,,,,,,,,,,,,,,,,,,004,001,2025-01-24_14h46.24.780,NESC3137_N400_exp,2023.2.3,59.84429711001874,2025-01-24 14h47.04.312474 -0400,
windmill,0,37,37,175,,,,,,,,,,,,,,,,,,,,,0.24860749999061227,,,,0.20136079998337664,0.20148769998922944,,,,,,,,,,,,,,,,,,,,,,,,,,,,,,,,,,,,,,,,,,,,,,,,,,,,,,,,,,,,,,,,,,,,,,,,,,,,,,,004,001,2025-01-24_14h46.24.780,NESC3137_N400_exp,2023.2.3,59.84429711001874,2025-01-24 14h47.04.312474 -0400,
leaf,0,38,38,87,,,,,,,,,,,,,,,,,,,,,0.24860749999061227,,,,0.2016031999955885,0.2017131999891717,,,,,,,,,,,,,,,,,,,,,,,,,,,,,,,,,,,,,,,,,,,,,,,,,,,,,,,,,,,,,,,,,,,,,,,,,,,,,,,004,001,2025-01-24_14h46.24.780,NESC3137_N400_exp,2023.2.3,59.84429711001874,2025-01-24 14h47.04.312474 -0400,
pumpkin,0,39,39,128,,,,,,,,,,,,,,,,,,,,,0.24860749999061227,,,,0.2018128999916371,0.20192210000823252,,,,,,,,,,,,,,,,,,,,,,,,,,,,,,,,,,,,,,,,,,,,,,,,,,,,,,,,,,,,,,,,,,,,,,,,,,,,,,,004,001,2025-01-24_14h46.24.780,NESC3137_N400_exp,2023.2.3,59.84429711001874,2025-01-24 14h47.04.312474 -0400,
boot,0,40,40,18,,,,,,,,,,,,,,,,,,,,,0.24860749999061227,,,,0.2020182999840472,0.20211919999564998,,,,,,,,,,,,,,,,,,,,,,,,,,,,,,,,,,,,,,,,,,,,,,,,,,,,,,,,,,,,,,,,,,,,,,,,,,,,,,,004,001,2025-01-24_14h46.24.780,NESC3137_N400_exp,2023.2.3,59.84429711001874,2025-01-24 14h47.04.312474 -0400,
pig,0,41,41,118,,,,,,,,,,,,,,,,,,,,,0.24860749999061227,,,,0.20221659998060204,0.20237009998527355,,,,,,,,,,,,,,,,,,,,,,,,,,,,,,,,,,,,,,,,,,,,,,,,,,,,,,,,,,,,,,,,,,,,,,,,,,,,,,,004,001,2025-01-24_14h46.24.780,NESC3137_N400_exp,2023.2.3,59.84429711001874,2025-01-24 14h47.04.312474 -0400,
swan,0,42,42,153,,,,,,,,,,,,,,,,,,,,,0.24860749999061227,,,,0.20257799999671988,0.20282889998634346,,,,,,,,,,,,,,,,,,,,,,,,,,,,,,,,,,,,,,,,,,,,,,,,,,,,,,,,,,,,,,,,,,,,,,,,,,,,,,,004,001,2025-01-24_14h46.24.780,NESC3137_N400_exp,2023.2.3,59.84429711001874,2025-01-24 14h47.04.312474 -0400,
sun,0,43,43,152,,,,,,,,,,,,,,,,,,,,,0.24860749999061227,,,,0.20297980000032112,0.2031594000000041,,,,,,,,,,,,,,,,,,,,,,,,,,,,,,,,,,,,,,,,,,,,,,,,,,,,,,,,,,,,,,,,,,,,,,,,,,,,,,,004,001,2025-01-24_14h46.24.780,NESC3137_N400_exp,2023.2.3,59.84429711001874,2025-01-24 14h47.04.312474 -0400,
chair,0,44,44,30,,,,,,,,,,,,,,,,,,,,,0.24860749999061227,,,,0.20328280000831,0.20343749999301508,,,,,,,,,,,,,,,,,,,,,,,,,,,,,,,,,,,,,,,,,,,,,,,,,,,,,,,,,,,,,,,,,,,,,,,,,,,,,,,004,001,2025-01-24_14h46.24.780,NESC3137_N400_exp,2023.2.3,59.84429711001874,2025-01-24 14h47.04.312474 -0400,
giraffe,0,45,45,61,,,,,,,,,,,,,,,,,,,,,0.24860749999061227,,,,0.20357670000521466,0.203726599982474,,,,,,,,,,,,,,,,,,,,,,,,,,,,,,,,,,,,,,,,,,,,,,,,,,,,,,,,,,,,,,,,,,,,,,,,,,,,,,,004,001,2025-01-24_14h46.24.780,NESC3137_N400_exp,2023.2.3,59.84429711001874,2025-01-24 14h47.04.312474 -0400,
seal,0,46,46,138,,,,,,,,,,,,,,,,,,,,,0.24860749999061227,,,,0.20385339998756535,0.20399509998969734,,,,,,,,,,,,,,,,,,,,,,,,,,,,,,,,,,,,,,,,,,,,,,,,,,,,,,,,,,,,,,,,,,,,,,,,,,,,,,,004,001,2025-01-24_14h46.24.780,NESC3137_N400_exp,2023.2.3,59.84429711001874,2025-01-24 14h47.04.312474 -0400,
wrench,0,47,47,178,,,,,,,,,,,,,,,,,,,,,0.24860749999061227,,,,0.20412549999309704,0.20426050000241958,,,,,,,,,,,,,,,,,,,,,,,,,,,,,,,,,,,,,,,,,,,,,,,,,,,,,,,,,,,,,,,,,,,,,,,,,,,,,,,004,001,2025-01-24_14h46.24.780,NESC3137_N400_exp,2023.2.3,59.84429711001874,2025-01-24 14h47.04.312474 -0400,
duck,0,48,48,47,,,,,,,,,,,,,,,,,,,,,0.24860749999061227,,,,0.20438449998619035,0.20450289998552762,,,,,,,,,,,,,,,,,,,,,,,,,,,,,,,,,,,,,,,,,,,,,,,,,,,,,,,,,,,,,,,,,,,,,,,,,,,,,,,004,001,2025-01-24_14h46.24.780,NESC3137_N400_exp,2023.2.3,59.84429711001874,2025-01-24 14h47.04.312474 -0400,
eagle,0,49,49,48,,,,,,,,,,,,,,,,,,,,,0.24860749999061227,,,,0.20461069999146275,0.20472670000162907,,,,,,,,,,,,,,,,,,,,,,,,,,,,,,,,,,,,,,,,,,,,,,,,,,,,,,,,,,,,,,,,,,,,,,,,,,,,,,,004,001,2025-01-24_14h46.24.780,NESC3137_N400_exp,2023.2.3,59.84429711001874,2025-01-24 14h47.04.312474 -0400,
chain,0,50,50,29,,,,,,,,,,,,,,,,,,,,,0.24860749999061227,,,,0.20482869999250397,0.20493659999920055,,,,,,,,,,,,,,,,,,,,,,,,,,,,,,,,,,,,,,,,,,,,,,,,,,,,,,,,,,,,,,,,,,,,,,,,,,,,,,,004,001,2025-01-24_14h46.24.780,NESC3137_N400_exp,2023.2.3,59.84429711001874,2025-01-24 14h47.04.312474 -0400,
mitten,0,51,51,97,,,,,,,,,,,,,,,,,,,,,0.24860749999061227,,,,0.20505449999473058,0.20519000000786036,,,,,,,,,,,,,,,,,,,,,,,,,,,,,,,,,,,,,,,,,,,,,,,,,,,,,,,,,,,,,,,,,,,,,,,,,,,,,,,004,001,2025-01-24_14h46.24.780,NESC3137_N400_exp,2023.2.3,59.84429711001874,2025-01-24 14h47.04.312474 -0400,
camel,0,52,52,24,,,,,,,,,,,,,,,,,,,,,0.24860749999061227,,,,0.2053134999878239,0.20542610000120476,,,,,,,,,,,,,,,,,,,,,,,,,,,,,,,,,,,,,,,,,,,,,,,,,,,,,,,,,,,,,,,,,,,,,,,,,,,,,,,004,001,2025-01-24_14h46.24.780,NESC3137_N400_exp,2023.2.3,59.84429711001874,2025-01-24 14h47.04.312474 -0400,
hat,0,53,53,74,,,,,,,,,,,,,,,,,,,,,0.24860749999061227,,,,0.2055343999818433,0.2056393999955617,,,,,,,,,,,,,,,,,,,,,,,,,,,,,,,,,,,,,,,,,,,,,,,,,,,,,,,,,,,,,,,,,,,,,,,,,,,,,,,004,001,2025-01-24_14h46.24.780,NESC3137_N400_exp,2023.2.3,59.84429711001874,2025-01-24 14h47.04.312474 -0400,
lightbulb,0,54,54,91,,,,,,,,,,,,,,,,,,,,,0.24860749999061227,,,,0.20574249999481253,0.20591200000490062,,,,,,,,,,,,,,,,,,,,,,,,,,,,,,,,,,,,,,,,,,,,,,,,,,,,,,,,,,,,,,,,,,,,,,,,,,,,,,,004,001,2025-01-24_14h46.24.780,NESC3137_N400_exp,2023.2.3,59.84429711001874,2025-01-24 14h47.04.312474 -0400,
bow,0,55,55,19,,,,,,,,,,,,,,,,,,,,,0.24860749999061227,,,,0.20601860000169836,0.20616919998428784,,,,,,,,,,,,,,,,,,,,,,,,,,,,,,,,,,,,,,,,,,,,,,,,,,,,,,,,,,,,,,,,,,,,,,,,,,,,,,,004,001,2025-01-24_14h46.24.780,NESC3137_N400_exp,2023.2.3,59.84429711001874,2025-01-24 14h47.04.312474 -0400,
church,0,56,56,32,,,,,,,,,,,,,,,,,,,,,0.24860749999061227,,,,0.20630459999665618,0.20644099998753518,,,,,,,,,,,,,,,,,,,,,,,,,,,,,,,,,,,,,,,,,,,,,,,,,,,,,,,,,,,,,,,,,,,,,,,,,,,,,,,004,001,2025-01-24_14h46.24.780,NESC3137_N400_exp,2023.2.3,59.84429711001874,2025-01-24 14h47.04.312474 -0400,
mountain,0,57,57,100,,,,,,,,,,,,,,,,,,,,,0.24860749999061227,,,,0.20655339999939315,0.2066820999898482,,,,,,,,,,,,,,,,,,,,,,,,,,,,,,,,,,,,,,,,,,,,,,,,,,,,,,,,,,,,,,,,,,,,,,,,,,,,,,,004,001,2025-01-24_14h46.24.780,NESC3137_N400_exp,2023.2.3,59.84429711001874,2025-01-24 14h47.04.312474 -0400,
spider,0,58,58,146,,,,,,,,,,,,,,,,,,,,,0.24860749999061227,,,,0.20678989999578334,0.20689969998784363,,,,,,,,,,,,,,,,,,,,,,,,,,,,,,,,,,,,,,,,,,,,,,,,,,,,,,,,,,,,,,,,,,,,,,,,,,,,,,,004,001,2025-01-24_14h46.24.780,NESC3137_N400_exp,2023.2.3,59.84429711001874,2025-01-24 14h47.04.312474 -0400,
ladder,0,59,59,85,,,,,,,,,,,,,,,,,,,,,0.24860749999061227,,,,0.20700379999470897,0.20711299998220056,,,,,,,,,,,,,,,,,,,,,,,,,,,,,,,,,,,,,,,,,,,,,,,,,,,,,,,,,,,,,,,,,,,,,,,,,,,,,,,004,001,2025-01-24_14h46.24.780,NESC3137_N400_exp,2023.2.3,59.84429711001874,2025-01-24 14h47.04.312474 -0400,
flag,0,60,60,55,,,,,,,,,,,,,,,,,,,,,0.24860749999061227,,,,0.20721409999532625,0.2073143000015989,,,,,,,,,,,,,,,,,,,,,,,,,,,,,,,,,,,,,,,,,,,,,,,,,,,,,,,,,,,,,,,,,,,,,,,,,,,,,,,004,001,2025-01-24_14h46.24.780,NESC3137_N400_exp,2023.2.3,59.84429711001874,2025-01-24 14h47.04.312474 -0400,
garbagecan,0,61,61,60,,,,,,,,,,,,,,,,,,,,,0.24860749999061227,,,,0.20741430000634864,0.20751489998656325,,,,,,,,,,,,,,,,,,,,,,,,,,,,,,,,,,,,,,,,,,,,,,,,,,,,,,,,,,,,,,,,,,,,,,,,,,,,,,,004,001,2025-01-24_14h46.24.780,NESC3137_N400_exp,2023.2.3,59.84429711001874,2025-01-24 14h47.04.312474 -0400,
vase,0,62,62,167,,,,,,,,,,,,,,,,,,,,,0.24860749999061227,,,,0.20761399998445995,0.2077127999800723,,,,,,,,,,,,,,,,,,,,,,,,,,,,,,,,,,,,,,,,,,,,,,,,,,,,,,,,,,,,,,,,,,,,,,,,,,,,,,,004,001,2025-01-24_14h46.24.780,NESC3137_N400_exp,2023.2.3,59.84429711001874,2025-01-24 14h47.04.312474 -0400,
plug,0,63,63,122,,,,,,,,,,,,,,,,,,,,,0.24860749999061227,,,,0.2078126999840606,0.20790959999430925,,,,,,,,,,,,,,,,,,,,,,,,,,,,,,,,,,,,,,,,,,,,,,,,,,,,,,,,,,,,,,,,,,,,,,,,,,,,,,,004,001,2025-01-24_14h46.24.780,NESC3137_N400_exp,2023.2.3,59.84429711001874,2025-01-24 14h47.04.312474 -0400,
rooster,0,64,64,131,,,,,,,,,,,,,,,,,,,,,0.24860749999061227,,,,0.20800620000227354,0.20810679998248816,,,,,,,,,,,,,,,,,,,,,,,,,,,,,,,,,,,,,,,,,,,,,,,,,,,,,,,,,,,,,,,,,,,,,,,,,,,,,,,004,001,2025-01-24_14h46.24.780,NESC3137_N400_exp,2023.2.3,59.84429711001874,2025-01-24 14h47.04.312474 -0400,
thimble,0,65,65,158,,,,,,,,,,,,,,,,,,,,,0.24860749999061227,,,,0.20820920000551268,0.20830779999960214,,,,,,,,,,,,,,,,,,,,,,,,,,,,,,,,,,,,,,,,,,,,,,,,,,,,,,,,,,,,,,,,,,,,,,,,,,,,,,,004,001,2025-01-24_14h46.24.780,NESC3137_N400_exp,2023.2.3,59.84429711001874,2025-01-24 14h47.04.312474 -0400,
knife,0,66,66,84,,,,,,,,,,,,,,,,,,,,,0.24860749999061227,,,,0.20840489998226985,0.2085394999885466,,,,,,,,,,,,,,,,,,,,,,,,,,,,,,,,,,,,,,,,,,,,,,,,,,,,,,,,,,,,,,,,,,,,,,,,,,,,,,,004,001,2025-01-24_14h46.24.780,NESC3137_N400_exp,2023.2.3,59.84429711001874,2025-01-24 14h47.04.312474 -0400,
kettle,0,67,67,81,,,,,,,,,,,,,,,,,,,,,0.24860749999061227,,,,0.20863909999025054,0.20875550000346266,,,,,,,,,,,,,,,,,,,,,,,,,,,,,,,,,,,,,,,,,,,,,,,,,,,,,,,,,,,,,,,,,,,,,,,,,,,,,,,004,001,2025-01-24_14h46.24.780,NESC3137_N400_exp,2023.2.3,59.84429711001874,2025-01-24 14h47.04.312474 -0400,
goat,0,68,68,64,,,,,,,,,,,,,,,,,,,,,0.24860749999061227,,,,0.20885249998536892,0.2090015999856405,,,,,,,,,,,,,,,,,,,,,,,,,,,,,,,,,,,,,,,,,,,,,,,,,,,,,,,,,,,,,,,,,,,,,,,,,,,,,,,004,001,2025-01-24_14h46.24.780,NESC3137_N400_exp,2023.2.3,59.84429711001874,2025-01-24 14h47.04.312474 -0400,
potato,0,69,69,124,,,,,,,,,,,,,,,,,,,,,0.24860749999061227,,,,0.2091235999832861,0.20924339999328367,,,,,,,,,,,,,,,,,,,,,,,,,,,,,,,,,,,,,,,,,,,,,,,,,,,,,,,,,,,,,,,,,,,,,,,,,,,,,,,004,001,2025-01-24_14h46.24.780,NESC3137_N400_exp,2023.2.3,59.84429711001874,2025-01-24 14h47.04.312474 -0400,
television,0,70,70,156,,,,,,,,,,,,,,,,,,,,,0.24860749999061227,,,,0.2093553000013344,0.20946359998197295,,,,,,,,,,,,,,,,,,,,,,,,,,,,,,,,,,,,,,,,,,,,,,,,,,,,,,,,,,,,,,,,,,,,,,,,,,,,,,,004,001,2025-01-24_14h46.24.780,NESC3137_N400_exp,2023.2.3,59.84429711001874,2025-01-24 14h47.04.312474 -0400,
clown,0,71,71,36,,,,,,,,,,,,,,,,,,,,,0.24860749999061227,,,,0.2095664999797009,0.20972359998268075,,,,,,,,,,,,,,,,,,,,,,,,,,,,,,,,,,,,,,,,,,,,,,,,,,,,,,,,,,,,,,,,,,,,,,,,,,,,,,,004,001,2025-01-24_14h46.24.780,NESC3137_N400_exp,2023.2.3,59.84429711001874,2025-01-24 14h47.04.312474 -0400,
screwdriver,0,72,72,136,,,,,,,,,,,,,,,,,,,,,0.24860749999061227,,,,0.20982869999716058,0.20996169999125414,,,,,,,,,,,,,,,,,,,,,,,,,,,,,,,,,,,,,,,,,,,,,,,,,,,,,,,,,,,,,,,,,,,,,,,,,,,,,,,004,001,2025-01-24_14h46.24.780,NESC3137_N400_exp,2023.2.3,59.84429711001874,2025-01-24 14h47.04.312474 -0400,
watermelon,0,73,73,171,,,,,,,,,,,,,,,,,,,,,0.24860749999061227,,,,0.2100608999899123,0.21019189999788068,,,,,,,,,,,,,,,,,,,,,,,,,,,,,,,,,,,,,,,,,,,,,,,,,,,,,,,,,,,,,,,,,,,,,,,,,,,,,,,004,001,2025-01-24_14h46.24.780,NESC3137_N400_exp,2023.2.3,59.84429711001874,2025-01-24 14h47.04.312474 -0400,
owl,0,74,74,107,,,,,,,,,,,,,,,,,,,,,0.24860749999061227,,,,0.21028780000051484,0.21042769998894073,,,,,,,,,,,,,,,,,,,,,,,,,,,,,,,,,,,,,,,,,,,,,,,,,,,,,,,,,,,,,,,,,,,,,,,,,,,,,,,004,001,2025-01-24_14h46.24.780,NESC3137_N400_exp,2023.2.3,59.84429711001874,2025-01-24 14h47.04.312474 -0400,
hair,0,75,75,69,,,,,,,,,,,,,,,,,,,,,0.24860749999061227,,,,0.21052580000832677,0.21066399998380803,,,,,,,,,,,,,,,,,,,,,,,,,,,,,,,,,,,,,,,,,,,,,,,,,,,,,,,,,,,,,,,,,,,,,,,,,,,,,,,004,001,2025-01-24_14h46.24.780,NESC3137_N400_exp,2023.2.3,59.84429711001874,2025-01-24 14h47.04.312474 -0400,
clock,0,76,76,34,,,,,,,,,,,,,,,,,,,,,0.24860749999061227,,,,0.21076190000167117,0.21086279998417012,,,,,,,,,,,,,,,,,,,,,,,,,,,,,,,,,,,,,,,,,,,,,,,,,,,,,,,,,,,,,,,,,,,,,,,,,,,,,,,004,001,2025-01-24_14h46.24.780,NESC3137_N400_exp,2023.2.3,59.84429711001874,2025-01-24 14h47.04.312474 -0400,
lemon,0,77,77,89,,,,,,,,,,,,,,,,,,,,,0.24860749999061227,,,,0.21095809998223558,0.2110664999927394,,,,,,,,,,,,,,,,,,,,,,,,,,,,,,,,,,,,,,,,,,,,,,,,,,,,,,,,,,,,,,,,,,,,,,,,,,,,,,,004,001,2025-01-24_14h46.24.780,NESC3137_N400_exp,2023.2.3,59.84429711001874,2025-01-24 14h47.04.312474 -0400,
lion,0,78,78,93,,,,,,,,,,,,,,,,,,,,,0.24860749999061227,,,,0.2111770999908913,0.21129049998125993,,,,,,,,,,,,,,,,,,,,,,,,,,,,,,,,,,,,,,,,,,,,,,,,,,,,,,,,,,,,,,,,,,,,,,,,,,,,,,,004,001,2025-01-24_14h46.24.780,NESC3137_N400_exp,2023.2.3,59.84429711001874,2025-01-24 14h47.04.312474 -0400,
eye,0,79,79,51,,,,,,,,,,,,,,,,,,,,,0.24860749999061227,,,,0.21141699998406693,0.21154250000836328,,,,,,,,,,,,,,,,,,,,,,,,,,,,,,,,,,,,,,,,,,,,,,,,,,,,,,,,,,,,,,,,,,,,,,,,,,,,,,,004,001,2025-01-24_14h46.24.780,NESC3137_N400_exp,2023.2.3,59.84429711001874,2025-01-24 14h47.04.312474 -0400,
lips,0,80,80,94,,,,,,,,,,,,,,,,,,,,,0.24860749999061227,,,,0.2116639000014402,0.21177429999806918,,,,,,,,,,,,,,,,,,,,,,,,,,,,,,,,,,,,,,,,,,,,,,,,,,,,,,,,,,,,,,,,,,,,,,,,,,,,,,,004,001,2025-01-24_14h46.24.780,NESC3137_N400_exp,2023.2.3,59.84429711001874,2025-01-24 14h47.04.312474 -0400,
lightswitch,0,81,81,92,,,,,,,,,,,,,,,,,,,,,0.24860749999061227,,,,0.21188240000628866,0.21199179999530315,,,,,,,,,,,,,,,,,,,,,,,,,,,,,,,,,,,,,,,,,,,,,,,,,,,,,,,,,,,,,,,,,,,,,,,,,,,,,,,004,001,2025-01-24_14h46.24.780,NESC3137_N400_exp,2023.2.3,59.84429711001874,2025-01-24 14h47.04.312474 -0400,
tiger,0,82,82,159,,,,,,,,,,,,,,,,,,,,,0.24860749999061227,,,,0.21210199999040924,0.21223390000523068,,,,,,,,,,,,,,,,,,,,,,,,,,,,,,,,,,,,,,,,,,,,,,,,,,,,,,,,,,,,,,,,,,,,,,,,,,,,,,,004,001,2025-01-24_14h46.24.780,NESC3137_N400_exp,2023.2.3,59.84429711001874,2025-01-24 14h47.04.312474 -0400,
shoe,0,83,83,140,,,,,,,,,,,,,,,,,,,,,0.24860749999061227,,,,0.21234519997960888,0.21245079999789596,,,,,,,,,,,,,,,,,,,,,,,,,,,,,,,,,,,,,,,,,,,,,,,,,,,,,,,,,,,,,,,,,,,,,,,,,,,,,,,004,001,2025-01-24_14h46.24.780,NESC3137_N400_exp,2023.2.3,59.84429711001874,2025-01-24 14h47.04.312474 -0400,
rabbit,0,84,84,126,,,,,,,,,,,,,,,,,,,,,0.24860749999061227,,,,0.2125510000041686,0.21264959999825805,,,,,,,,,,,,,,,,,,,,,,,,,,,,,,,,,,,,,,,,,,,,,,,,,,,,,,,,,,,,,,,,,,,,,,,,,,,,,,,004,001,2025-01-24_14h46.24.780,NESC3137_N400_exp,2023.2.3,59.84429711001874,2025-01-24 14h47.04.312474 -0400,
hammer,0,85,85,70,,,,,,,,,,,,,,,,,,,,,0.24860749999061227,,,,0.21274769998854026,0.21284530000411905,,,,,,,,,,,,,,,,,,,,,,,,,,,,,,,,,,,,,,,,,,,,,,,,,,,,,,,,,,,,,,,,,,,,,,,,,,,,,,,004,001,2025-01-24_14h46.24.780,NESC3137_N400_exp,2023.2.3,59.84429711001874,2025-01-24 14h47.04.312474 -0400,
turtle,0,86,86,165,,,,,,,,,,,,,,,,,,,,,0.24860749999061227,,,,0.2129475999972783,0.21309169998858124,,,,,,,,,,,,,,,,,,,,,,,,,,,,,,,,,,,,,,,,,,,,,,,,,,,,,,,,,,,,,,,,,,,,,,,,,,,,,,,004,001,2025-01-24_14h46.24.780,NESC3137_N400_exp,2023.2.3,59.84429711001874,2025-01-24 14h47.04.312474 -0400,
skirt,0,87,87,141,,,,,,,,,,,,,,,,,,,,,0.24860749999061227,,,,0.2132897999836132,0.21347389998845756,,,,,,,,,,,,,,,,,,,,,,,,,,,,,,,,,,,,,,,,,,,,,,,,,,,,,,,,,,,,,,,,,,,,,,,,,,,,,,,004,001,2025-01-24_14h46.24.780,NESC3137_N400_exp,2023.2.3,59.84429711001874,2025-01-24 14h47.04.312474 -0400,
book,0,88,88,17,,,,,,,,,,,,,,,,,,,,,0.24860749999061227,,,,0.21365799999330193,0.21379270000034012,,,,,,,,,,,,,,,,,,,,,,,,,,,,,,,,,,,,,,,,,,,,,,,,,,,,,,,,,,,,,,,,,,,,,,,,,,,,,,,004,001,2025-01-24_14h46.24.780,NESC3137_N400_exp,2023.2.3,59.84429711001874,2025-01-24 14h47.04.312474 -0400,
peacock,0,89,89,112,,,,,,,,,,,,,,,,,,,,,0.24860749999061227,,,,0.2139069999975618,0.21403669999563135,,,,,,,,,,,,,,,,,,,,,,,,,,,,,,,,,,,,,,,,,,,,,,,,,,,,,,,,,,,,,,,,,,,,,,,,,,,,,,,004,001,2025-01-24_14h46.24.780,NESC3137_N400_exp,2023.2.3,59.84429711001874,2025-01-24 14h47.04.312474 -0400,
orange,0,90,90,105,,,,,,,,,,,,,,,,,,,,,0.24860749999061227,,,,0.21416209999006242,0.21428709998144768,,,,,,,,,,,,,,,,,,,,,,,,,,,,,,,,,,,,,,,,,,,,,,,,,,,,,,,,,,,,,,,,,,,,,,,,,,,,,,,004,001,2025-01-24_14h46.24.780,NESC3137_N400_exp,2023.2.3,59.84429711001874,2025-01-24 14h47.04.312474 -0400,
trafficlight,0,91,91,162,,,,,,,,,,,,,,,,,,,,,0.24860749999061227,,,,0.2143987999879755,0.21450539998477325,,,,,,,,,,,,,,,,,,,,,,,,,,,,,,,,,,,,,,,,,,,,,,,,,,,,,,,,,,,,,,,,,,,,,,,,,,,,,,,004,001,2025-01-24_14h46.24.780,NESC3137_N400_exp,2023.2.3,59.84429711001874,2025-01-24 14h47.04.312474 -0400,
vest,0,92,92,168,,,,,,,,,,,,,,,,,,,,,0.24860749999061227,,,,0.21460730000399053,0.21471470000687987,,,,,,,,,,,,,,,,,,,,,,,,,,,,,,,,,,,,,,,,,,,,,,,,,,,,,,,,,,,,,,,,,,,,,,,,,,,,,,,004,001,2025-01-24_14h46.24.780,NESC3137_N400_exp,2023.2.3,59.84429711001874,2025-01-24 14h47.04.312474 -0400,
kangaroo,0,93,93,80,,,,,,,,,,,,,,,,,,,,,0.24860749999061227,,,,0.21485580000444315,0.2149885999970138,,,,,,,,,,,,,,,,,,,,,,,,,,,,,,,,,,,,,,,,,,,,,,,,,,,,,,,,,,,,,,,,,,,,,,,,,,,,,,,004,001,2025-01-24_14h46.24.780,NESC3137_N400_exp,2023.2.3,59.84429711001874,2025-01-24 14h47.04.312474 -0400,
pineapple,0,94,94,119,,,,,,,,,,,,,,,,,,,,,0.24860749999061227,,,,0.21513080000295304,0.21527590000187047,,,,,,,,,,,,,,,,,,,,,,,,,,,,,,,,,,,,,,,,,,,,,,,,,,,,,,,,,,,,,,,,,,,,,,,,,,,,,,,004,001,2025-01-24_14h46.24.780,NESC3137_N400_exp,2023.2.3,59.84429711001874,2025-01-24 14h47.04.312474 -0400,
peanut,0,95,95,113,,,,,,,,,,,,,,,,,,,,,0.24860749999061227,,,,0.21539169998141006,0.21550590000697412,,,,,,,,,,,,,,,,,,,,,,,,,,,,,,,,,,,,,,,,,,,,,,,,,,,,,,,,,,,,,,,,,,,,,,,,,,,,,,,004,001,2025-01-24_14h46.24.780,NESC3137_N400_exp,2023.2.3,59.84429711001874,2025-01-24 14h47.04.312474 -0400,
elephant,0,96,96,49,,,,,,,,,,,,,,,,,,,,,0.24860749999061227,,,,0.21562669999548234,0.21574699998018332,,,,,,,,,,,,,,,,,,,,,,,,,,,,,,,,,,,,,,,,,,,,,,,,,,,,,,,,,,,,,,,,,,,,,,,,,,,,,,,004,001,2025-01-24_14h46.24.780,NESC3137_N400_exp,2023.2.3,59.84429711001874,2025-01-24 14h47.04.312474 -0400,
anchor,0,97,97,3,,,,,,,,,,,,,,,,,,,,,0.24860749999061227,,,,0.2158521999954246,0.21597130000009201,,,,,,,,,,,,,,,,,,,,,,,,,,,,,,,,,,,,,,,,,,,,,,,,,,,,,,,,,,,,,,,,,,,,,,,,,,,,,,,004,001,2025-01-24_14h46.24.780,NESC3137_N400_exp,2023.2.3,59.84429711001874,2025-01-24 14h47.04.312474 -0400,
envelope,0,98,98,50,,,,,,,,,,,,,,,,,,,,,0.24860749999061227,,,,0.21607349999248981,0.21626019998802803,,,,,,,,,,,,,,,,,,,,,,,,,,,,,,,,,,,,,,,,,,,,,,,,,,,,,,,,,,,,,,,,,,,,,,,,,,,,,,,004,001,2025-01-24_14h46.24.780,NESC3137_N400_exp,2023.2.3,59.84429711001874,2025-01-24 14h47.04.312474 -0400,
alligator,0,99,99,2,,,,,,,,,,,,,,,,,,,,,0.24860749999061227,,,,0.21641140000429004,0.21657869999762625,,,,,,,,,,,,,,,,,,,,,,,,,,,,,,,,,,,,,,,,,,,,,,,,,,,,,,,,,,,,,,,,,,,,,,,,,,,,,,,004,001,2025-01-24_14h46.24.780,NESC3137_N400_exp,2023.2.3,59.84429711001874,2025-01-24 14h47.04.312474 -0400,
cherry,0,100,100,31,,,,,,,,,,,,,,,,,,,,,0.24860749999061227,,,,0.21678570000221953,0.2169720999954734,,,,,,,,,,,,,,,,,,,,,,,,,,,,,,,,,,,,,,,,,,,,,,,,,,,,,,,,,,,,,,,,,,,,,,,,,,,,,,,004,001,2025-01-24_14h46.24.780,NESC3137_N400_exp,2023.2.3,59.84429711001874,2025-01-24 14h47.04.312474 -0400,
helicopter,0,101,101,76,,,,,,,,,,,,,,,,,,,,,0.24860749999061227,,,,0.21709580000606366,0.21721589998924173,,,,,,,,,,,,,,,,,,,,,,,,,,,,,,,,,,,,,,,,,,,,,,,,,,,,,,,,,,,,,,,,,,,,,,,,,,,,,,,004,001,2025-01-24_14h46.24.780,NESC3137_N400_exp,2023.2.3,59.84429711001874,2025-01-24 14h47.04.312474 -0400,
tennisracket,0,102,102,157,,,,,,,,,,,,,,,,,,,,,0.24860749999061227,,,,0.21733129999483936,0.21744939999189228,,,,,,,,,,,,,,,,,,,,,,,,,,,,,,,,,,,,,,,,,,,,,,,,,,,,,,,,,,,,,,,,,,,,,,,,,,,,,,,004,001,2025-01-24_14h46.24.780,NESC3137_N400_exp,2023.2.3,59.84429711001874,2025-01-24 14h47.04.312474 -0400,
barrel,0,103,103,10,,,,,,,,,,,,,,,,,,,,,0.24860749999061227,,,,0.21755830000620335,0.21766299998853356,,,,,,,,,,,,,,,,,,,,,,,,,,,,,,,,,,,,,,,,,,,,,,,,,,,,,,,,,,,,,,,,,,,,,,,,,,,,,,,004,001,2025-01-24_14h46.24.780,NESC3137_N400_exp,2023.2.3,59.84429711001874,2025-01-24 14h47.04.312474 -0400,
wheel,0,104,104,173,,,,,,,,,,,,,,,,,,,,,0.24860749999061227,,,,0.21777049999218434,0.21790990000590682,,,,,,,,,,,,,,,,,,,,,,,,,,,,,,,,,,,,,,,,,,,,,,,,,,,,,,,,,,,,,,,,,,,,,,,,,,,,,,,004,001,2025-01-24_14h46.24.780,NESC3137_N400_exp,2023.2.3,59.84429711001874,2025-01-24 14h47.04.312474 -0400,
peach,0,105,105,110,,,,,,,,,,,,,,,,,,,,,0.24860749999061227,,,,0.21804809998138808,0.21826540000620298,,,,,,,,,,,,,,,,,,,,,,,,,,,,,,,,,,,,,,,,,,,,,,,,,,,,,,,,,,,,,,,,,,,,,,,,,,,,,,,004,001,2025-01-24_14h46.24.780,NESC3137_N400_exp,2023.2.3,59.84429711001874,2025-01-24 14h47.04.312474 -0400,
cake,0,106,106,23,,,,,,,,,,,,,,,,,,,,,0.24860749999061227,,,,0.21839019999606535,0.21850449999328703,,,,,,,,,,,,,,,,,,,,,,,,,,,,,,,,,,,,,,,,,,,,,,,,,,,,,,,,,,,,,,,,,,,,,,,,,,,,,,,004,001,2025-01-24_14h46.24.780,NESC3137_N400_exp,2023.2.3,59.84429711001874,2025-01-24 14h47.04.312474 -0400,
monkey,0,107,107,98,,,,,,,,,,,,,,,,,,,,,0.24860749999061227,,,,0.21860849999939092,0.2187147999939043,,,,,,,,,,,,,,,,,,,,,,,,,,,,,,,,,,,,,,,,,,,,,,,,,,,,,,,,,,,,,,,,,,,,,,,,,,,,,,,004,001,2025-01-24_14h46.24.780,NESC3137_N400_exp,2023.2.3,59.84429711001874,2025-01-24 14h47.04.312474 -0400,
squirrel,0,108,108,147,,,,,,,,,,,,,,,,,,,,,0.24860749999061227,,,,0.21883529998012818,0.2189405999961309,,,,,,,,,,,,,,,,,,,,,,,,,,,,,,,,,,,,,,,,,,,,,,,,,,,,,,,,,,,,,,,,,,,,,,,,,,,,,,,004,001,2025-01-24_14h46.24.780,NESC3137_N400_exp,2023.2.3,59.84429711001874,2025-01-24 14h47.04.312474 -0400,
ruler,0,109,109,132,,,,,,,,,,,,,,,,,,,,,0.24860749999061227,,,,0.21909659999073483,0.21926429998711683,,,,,,,,,,,,,,,,,,,,,,,,,,,,,,,,,,,,,,,,,,,,,,,,,,,,,,,,,,,,,,,,,,,,,,,,,,,,,,,004,001,2025-01-24_14h46.24.780,NESC3137_N400_exp,2023.2.3,59.84429711001874,2025-01-24 14h47.04.312474 -0400,
seahorse,0,110,110,137,,,,,,,,,,,,,,,,,,,,,0.24860749999061227,,,,0.21944689998053946,0.21959219998097979,,,,,,,,,,,,,,,,,,,,,,,,,,,,,,,,,,,,,,,,,,,,,,,,,,,,,,,,,,,,,,,,,,,,,,,,,,,,,,,004,001,2025-01-24_14h46.24.780,NESC3137_N400_exp,2023.2.3,59.84429711001874,2025-01-24 14h47.04.312474 -0400,
gun,0,111,111,68,,,,,,,,,,,,,,,,,,,,,0.24860749999061227,,,,0.2197599000064656,0.219905399979325,,,,,,,,,,,,,,,,,,,,,,,,,,,,,,,,,,,,,,,,,,,,,,,,,,,,,,,,,,,,,,,,,,,,,,,,,,,,,,,004,001,2025-01-24_14h46.24.780,NESC3137_N400_exp,2023.2.3,59.84429711001874,2025-01-24 14h47.04.312474 -0400,
cigarette,0,112,112,33,,,,,,,,,,,,,,,,,,,,,0.24860749999061227,,,,0.22002399998018518,0.22020290000364184,,,,,,,,,,,,,,,,,,,,,,,,,,,,,,,,,,,,,,,,,,,,,,,,,,,,,,,,,,,,,,,,,,,,,,,,,,,,,,,004,001,2025-01-24_14h46.24.780,NESC3137_N400_exp,2023.2.3,59.84429711001874,2025-01-24 14h47.04.312474 -0400,
window,0,113,113,176,,,,,,,,,,,,,,,,,,,,,0.24860749999061227,,,,0.22031810000771657,0.22048099999665283,,,,,,,,,,,,,,,,,,,,,,,,,,,,,,,,,,,,,,,,,,,,,,,,,,,,,,,,,,,,,,,,,,,,,,,,,,,,,,,004,001,2025-01-24_14h46.24.780,NESC3137_N400_exp,2023.2.3,59.84429711001874,2025-01-24 14h47.04.312474 -0400,
fence,0,114,114,52,,,,,,,,,,,,,,,,,,,,,0.24860749999061227,,,,0.22064210000098683,0.22077580000041053,,,,,,,,,,,,,,,,,,,,,,,,,,,,,,,,,,,,,,,,,,,,,,,,,,,,,,,,,,,,,,,,,,,,,,,,,,,,,,,004,001,2025-01-24_14h46.24.780,NESC3137_N400_exp,2023.2.3,59.84429711001874,2025-01-24 14h47.04.312474 -0400,
lettuce,0,115,115,90,,,,,,,,,,,,,,,,,,,,,0.24860749999061227,,,,0.22089820000110194,0.22100970000610687,,,,,,,,,,,,,,,,,,,,,,,,,,,,,,,,,,,,,,,,,,,,,,,,,,,,,,,,,,,,,,,,,,,,,,,,,,,,,,,004,001,2025-01-24_14h46.24.780,NESC3137_N400_exp,2023.2.3,59.84429711001874,2025-01-24 14h47.04.312474 -0400,
rollingpin,0,116,116,130,,,,,,,,,,,,,,,,,,,,,0.24860749999061227,,,,0.22111549999681301,0.22126950000529177,,,,,,,,,,,,,,,,,,,,,,,,,,,,,,,,,,,,,,,,,,,,,,,,,,,,,,,,,,,,,,,,,,,,,,,,,,,,,,,004,001,2025-01-24_14h46.24.780,NESC3137_N400_exp,2023.2.3,59.84429711001874,2025-01-24 14h47.04.312474 -0400,
arm,0,117,117,5,,,,,,,,,,,,,,,,,,,,,0.24860749999061227,,,,0.2213874000008218,0.22150709998095408,,,,,,,,,,,,,,,,,,,,,,,,,,,,,,,,,,,,,,,,,,,,,,,,,,,,,,,,,,,,,,,,,,,,,,,,,,,,,,,004,001,2025-01-24_14h46.24.780,NESC3137_N400_exp,2023.2.3,59.84429711001874,2025-01-24 14h47.04.312474 -0400,
apple,0,118,118,4,,,,,,,,,,,,,,,,,,,,,0.24860749999061227,,,,0.22161039998172782,0.22172470000805333,,,,,,,,,,,,,,,,,,,,,,,,,,,,,,,,,,,,,,,,,,,,,,,,,,,,,,,,,,,,,,,,,,,,,,,,,,,,,,,004,001,2025-01-24_14h46.24.780,NESC3137_N400_exp,2023.2.3,59.84429711001874,2025-01-24 14h47.04.312474 -0400,
guitar,0,119,119,67,,,,,,,,,,,,,,,,,,,,,0.24860749999061227,,,,0.2218233000021428,0.22192730000824668,,,,,,,,,,,,,,,,,,,,,,,,,,,,,,,,,,,,,,,,,,,,,,,,,,,,,,,,,,,,,,,,,,,,,,,,,,,,,,,004,001,2025-01-24_14h46.24.780,NESC3137_N400_exp,2023.2.3,59.84429711001874,2025-01-24 14h47.04.312474 -0400,
lamp,0,120,120,86,,,,,,,,,,,,,,,,,,,,,0.24860749999061227,,,,0.22202660000766627,0.22214199998416007,,,,,,,,,,,,,,,,,,,,,,,,,,,,,,,,,,,,,,,,,,,,,,,,,,,,,,,,,,,,,,,,,,,,,,,,,,,,,,,004,001,2025-01-24_14h46.24.780,NESC3137_N400_exp,2023.2.3,59.84429711001874,2025-01-24 14h47.04.312474 -0400,
zebra,0,121,121,179,,,,,,,,,,,,,,,,,,,,,0.24860749999061227,,,,0.22224410000490025,0.2223554999800399,,,,,,,,,,,,,,,,,,,,,,,,,,,,,,,,,,,,,,,,,,,,,,,,,,,,,,,,,,,,,,,,,,,,,,,,,,,,,,,004,001,2025-01-24_14h46.24.780,NESC3137_N400_exp,2023.2.3,59.84429711001874,2025-01-24 14h47.04.312474 -0400,
jacket,0,122,122,79,,,,,,,,,,,,,,,,,,,,,0.24860749999061227,,,,0.22245949998614378,0.22256160000688396,,,,,,,,,,,,,,,,,,,,,,,,,,,,,,,,,,,,,,,,,,,,,,,,,,,,,,,,,,,,,,,,,,,,,,,,,,,,,,,004,001,2025-01-24_14h46.24.780,NESC3137_N400_exp,2023.2.3,59.84429711001874,2025-01-24 14h47.04.312474 -0400,
bear,0,123,123,12,,,,,,,,,,,,,,,,,,,,,0.24860749999061227,,,,0.22266149998176843,0.22276569998939522,,,,,,,,,,,,,,,,,,,,,,,,,,,,,,,,,,,,,,,,,,,,,,,,,,,,,,,,,,,,,,,,,,,,,,,,,,,,,,,004,001,2025-01-24_14h46.24.780,NESC3137_N400_exp,2023.2.3,59.84429711001874,2025-01-24 14h47.04.312474 -0400,
banana,0,124,124,9,,,,,,,,,,,,,,,,,,,,,0.24860749999061227,,,,0.2228686999878846,0.22297709999838844,,,,,,,,,,,,,,,,,,,,,,,,,,,,,,,,,,,,,,,,,,,,,,,,,,,,,,,,,,,,,,,,,,,,,,,,,,,,,,,004,001,2025-01-24_14h46.24.780,NESC3137_N400_exp,2023.2.3,59.84429711001874,2025-01-24 14h47.04.312474 -0400,
cat,0,125,125,28,,,,,,,,,,,,,,,,,,,,,0.24860749999061227,,,,0.2230713999888394,0.2231751999934204,,,,,,,,,,,,,,,,,,,,,,,,,,,,,,,,,,,,,,,,,,,,,,,,,,,,,,,,,,,,,,,,,,,,,,,,,,,,,,,004,001,2025-01-24_14h46.24.780,NESC3137_N400_exp,2023.2.3,59.84429711001874,2025-01-24 14h47.04.312474 -0400,
fish,0,126,126,54,,,,,,,,,,,,,,,,,,,,,0.24860749999061227,,,,0.22327359998598695,0.22337449999758974,,,,,,,,,,,,,,,,,,,,,,,,,,,,,,,,,,,,,,,,,,,,,,,,,,,,,,,,,,,,,,,,,,,,,,,,,,,,,,,004,001,2025-01-24_14h46.24.780,NESC3137_N400_exp,2023.2.3,59.84429711001874,2025-01-24 14h47.04.312474 -0400,
horse,0,127,127,77,,,,,,,,,,,,,,,,,,,,,0.24860749999061227,,,,0.22347409999929368,0.22357420000480488,,,,,,,,,,,,,,,,,,,,,,,,,,,,,,,,,,,,,,,,,,,,,,,,,,,,,,,,,,,,,,,,,,,,,,,,,,,,,,,004,001,2025-01-24_14h46.24.780,NESC3137_N400_exp,2023.2.3,59.84429711001874,2025-01-24 14h47.04.312474 -0400,
flower,0,128,128,56,,,,,,,,,,,,,,,,,,,,,0.24860749999061227,,,,0.22367330000270158,0.22376989998156205,,,,,,,,,,,,,,,,,,,,,,,,,,,,,,,,,,,,,,,,,,,,,,,,,,,,,,,,,,,,,,,,,,,,,,,,,,,,,,,004,001,2025-01-24_14h46.24.780,NESC3137_N400_exp,2023.2.3,59.84429711001874,2025-01-24 14h47.04.312474 -0400,
ostrich,0,129,129,106,,,,,,,,,,,,,,,,,,,,,0.24860749999061227,,,,0.22386649998952635,0.22396350000053644,,,,,,,,,,,,,,,,,,,,,,,,,,,,,,,,,,,,,,,,,,,,,,,,,,,,,,,,,,,,,,,,,,,,,,,,,,,,,,,004,001,2025-01-24_14h46.24.780,NESC3137_N400_exp,2023.2.3,59.84429711001874,2025-01-24 14h47.04.312474 -0400,
table,0,130,130,155,,,,,,,,,,,,,,,,,,,,,0.24860749999061227,,,,0.22406119998777285,0.22416690000682138,,,,,,,,,,,,,,,,,,,,,,,,,,,,,,,,,,,,,,,,,,,,,,,,,,,,,,,,,,,,,,,,,,,,,,,,,,,,,,,004,001,2025-01-24_14h46.24.780,NESC3137_N400_exp,2023.2.3,59.84429711001874,2025-01-24 14h47.04.312474 -0400,
pencil,0,131,131,115,,,,,,,,,,,,,,,,,,,,,0.24860749999061227,,,,0.22426329998415895,0.2243612000020221,,,,,,,,,,,,,,,,,,,,,,,,,,,,,,,,,,,,,,,,,,,,,,,,,,,,,,,,,,,,,,,,,,,,,,,,,,,,,,,004,001,2025-01-24_14h46.24.780,NESC3137_N400_exp,2023.2.3,59.84429711001874,2025-01-24 14h47.04.312474 -0400,
moon,0,132,132,99,,,,,,,,,,,,,,,,,,,,,0.24860749999061227,,,,0.2244561999978032,0.22457319998648018,,,,,,,,,,,,,,,,,,,,,,,,,,,,,,,,,,,,,,,,,,,,,,,,,,,,,,,,,,,,,,,,,,,,,,,,,,,,,,,004,001,2025-01-24_14h46.24.780,NESC3137_N400_exp,2023.2.3,59.84429711001874,2025-01-24 14h47.04.312474 -0400,
doorknob,0,133,133,44,,,,,,,,,,,,,,,,,,,,,0.24860749999061227,,,,0.22476589999860153,0.22491509999963455,,,,,,,,,,,,,,,,,,,,,,,,,,,,,,,,,,,,,,,,,,,,,,,,,,,,,,,,,,,,,,,,,,,,,,,,,,,,,,,004,001,2025-01-24_14h46.24.780,NESC3137_N400_exp,2023.2.3,59.84429711001874,2025-01-24 14h47.04.312474 -0400,
house,0,134,134,78,,,,,,,,,,,,,,,,,,,,,0.24860749999061227,,,,0.22503909998340532,0.22516040000482462,,,,,,,,,,,,,,,,,,,,,,,,,,,,,,,,,,,,,,,,,,,,,,,,,,,,,,,,,,,,,,,,,,,,,,,,,,,,,,,004,001,2025-01-24_14h46.24.780,NESC3137_N400_exp,2023.2.3,59.84429711001874,2025-01-24 14h47.04.312474 -0400,
stove,0,135,135,149,,,,,,,,,,,,,,,,,,,,,0.24860749999061227,,,,0.22527110000373796,0.2253756999853067,,,,,,,,,,,,,,,,,,,,,,,,,,,,,,,,,,,,,,,,,,,,,,,,,,,,,,,,,,,,,,,,,,,,,,,,,,,,,,,004,001,2025-01-24_14h46.24.780,NESC3137_N400_exp,2023.2.3,59.84429711001874,2025-01-24 14h47.04.312474 -0400,
tomato,0,136,136,160,,,,,,,,,,,,,,,,,,,,,0.24860749999061227,,,,0.22547750000376254,0.22558719999506138,,,,,,,,,,,,,,,,,,,,,,,,,,,,,,,,,,,,,,,,,,,,,,,,,,,,,,,,,,,,,,,,,,,,,,,,,,,,,,,004,001,2025-01-24_14h46.24.780,NESC3137_N400_exp,2023.2.3,59.84429711001874,2025-01-24 14h47.04.312474 -0400,
babycarriage,0,137,137,7,,,,,,,,,,,,,,,,,,,,,0.24860749999061227,,,,0.22568709999904968,0.22578690000227652,,,,,,,,,,,,,,,,,,,,,,,,,,,,,,,,,,,,,,,,,,,,,,,,,,,,,,,,,,,,,,,,,,,,,,,,,,,,,,,004,001,2025-01-24_14h46.24.780,NESC3137_N400_exp,2023.2.3,59.84429711001874,2025-01-24 14h47.04.312474 -0400,
wagon,0,138,138,170,,,,,,,,,,,,,,,,,,,,,0.24860749999061227,,,,0.22588589999941178,0.22598640000796877,,,,,,,,,,,,,,,,,,,,,,,,,,,,,,,,,,,,,,,,,,,,,,,,,,,,,,,,,,,,,,,,,,,,,,,,,,,,,,,004,001,2025-01-24_14h46.24.780,NESC3137_N400_exp,2023.2.3,59.84429711001874,2025-01-24 14h47.04.312474 -0400,
piano,0,139,139,117,,,,,,,,,,,,,,,,,,,,,0.24860749999061227,,,,0.22609099998953752,0.2261956000002101,,,,,,,,,,,,,,,,,,,,,,,,,,,,,,,,,,,,,,,,,,,,,,,,,,,,,,,,,,,,,,,,,,,,,,,,,,,,,,,004,001,2025-01-24_14h46.24.780,NESC3137_N400_exp,2023.2.3,59.84429711001874,2025-01-24 14h47.04.312474 -0400,
desk,0,140,140,41,,,,,,,,,,,,,,,,,,,,,0.24860749999061227,,,,0.22630239999853075,0.22640270000556484,,,,,,,,,,,,,,,,,,,,,,,,,,,,,,,,,,,,,,,,,,,,,,,,,,,,,,,,,,,,,,,,,,,,,,,,,,,,,,,004,001,2025-01-24_14h46.24.780,NESC3137_N400_exp,2023.2.3,59.84429711001874,2025-01-24 14h47.04.312474 -0400,
snake,0,141,141,154,,,,,,,,,,,,,,,,,,,,,0.24860749999061227,,,,0.22651249999762513,0.22662010000203736,,,,,,,,,,,,,,,,,,,,,,,,,,,,,,,,,,,,,,,,,,,,,,,,,,,,,,,,,,,,,,,,,,,,,,,,,,,,,,,004,001,2025-01-24_14h46.24.780,NESC3137_N400_exp,2023.2.3,59.84429711001874,2025-01-24 14h47.04.312474 -0400,
suitcase,0,142,142,151,,,,,,,,,,,,,,,,,,,,,0.24860749999061227,,,,0.22671980000450276,0.22681799999554642,,,,,,,,,,,,,,,,,,,,,,,,,,,,,,,,,,,,,,,,,,,,,,,,,,,,,,,,,,,,,,,,,,,,,,,,,,,,,,,004,001,2025-01-24_14h46.24.780,NESC3137_N400_exp,2023.2.3,59.84429711001874,2025-01-24 14h47.04.312474 -0400,
lobster,0,143,143,95,,,,,,,,,,,,,,,,,,,,,0.24860749999061227,,,,0.22691609998582862,0.22701609999057837,,,,,,,,,,,,,,,,,,,,,,,,,,,,,,,,,,,,,,,,,,,,,,,,,,,,,,,,,,,,,,,,,,,,,,,,,,,,,,,004,001,2025-01-24_14h46.24.780,NESC3137_N400_exp,2023.2.3,59.84429711001874,2025-01-24 14h47.04.312474 -0400,
kite,0,144,144,83,,,,,,,,,,,,,,,,,,,,,0.24860749999061227,,,,0.22711869998602197,0.22722519998205826,,,,,,,,,,,,,,,,,,,,,,,,,,,,,,,,,,,,,,,,,,,,,,,,,,,,,,,,,,,,,,,,,,,,,,,,,,,,,,,004,001,2025-01-24_14h46.24.780,NESC3137_N400_exp,2023.2.3,59.84429711001874,2025-01-24 14h47.04.312474 -0400,
wineglass,0,145,145,177,,,,,,,,,,,,,,,,,,,,,0.24860749999061227,,,,0.22732609999366105,0.2274567999993451,,,,,,,,,,,,,,,,,,,,,,,,,,,,,,,,,,,,,,,,,,,,,,,,,,,,,,,,,,,,,,,,,,,,,,,,,,,,,,,004,001,2025-01-24_14h46.24.780,NESC3137_N400_exp,2023.2.3,59.84429711001874,2025-01-24 14h47.04.312474 -0400,
ring,0,146,146,129,,,,,,,,,,,,,,,,,,,,,0.24860749999061227,,,,0.22756219998700544,0.22767599998041987,,,,,,,,,,,,,,,,,,,,,,,,,,,,,,,,,,,,,,,,,,,,,,,,,,,,,,,,,,,,,,,,,,,,,,,,,,,,,,,004,001,2025-01-24_14h46.24.780,NESC3137_N400_exp,2023.2.3,59.84429711001874,2025-01-24 14h47.04.312474 -0400,
dresser,0,147,147,45,,,,,,,,,,,,,,,,,,,,,0.24860749999061227,,,,0.2278128000034485,0.2279559999878984,,,,,,,,,,,,,,,,,,,,,,,,,,,,,,,,,,,,,,,,,,,,,,,,,,,,,,,,,,,,,,,,,,,,,,,,,,,,,,,004,001,2025-01-24_14h46.24.780,NESC3137_N400_exp,2023.2.3,59.84429711001874,2025-01-24 14h47.04.312474 -0400,
leg,0,148,148,88,,,,,,,,,,,,,,,,,,,,,0.24860749999061227,,,,0.22818619999452494,0.2283432999975048,,,,,,,,,,,,,,,,,,,,,,,,,,,,,,,,,,,,,,,,,,,,,,,,,,,,,,,,,,,,,,,,,,,,,,,,,,,,,,,004,001,2025-01-24_14h46.24.780,NESC3137_N400_exp,2023.2.3,59.84429711001874,2025-01-24 14h47.04.312474 -0400,
star,0,149,149,148,,,,,,,,,,,,,,,,,,,,,0.24860749999061227,,,,0.22853609998128377,0.2287118999811355,,,,,,,,,,,,,,,,,,,,,,,,,,,,,,,,,,,,,,,,,,,,,,,,,,,,,,,,,,,,,,,,,,,,,,,,,,,,,,,004,001,2025-01-24_14h46.24.780,NESC3137_N400_exp,2023.2.3,59.84429711001874,2025-01-24 14h47.04.312474 -0400,
lock,0,150,150,96,,,,,,,,,,,,,,,,,,,,,0.24860749999061227,,,,0.22883049998199567,0.2289718999818433,,,,,,,,,,,,,,,,,,,,,,,,,,,,,,,,,,,,,,,,,,,,,,,,,,,,,,,,,,,,,,,,,,,,,,,,,,,,,,,004,001,2025-01-24_14h46.24.780,NESC3137_N400_exp,2023.2.3,59.84429711001874,2025-01-24 14h47.04.312474 -0400,
strawberry,0,151,151,150,,,,,,,,,,,,,,,,,,,,,0.24860749999061227,,,,0.22908319998532534,0.2292027999938,,,,,,,,,,,,,,,,,,,,,,,,,,,,,,,,,,,,,,,,,,,,,,,,,,,,,,,,,,,,,,,,,,,,,,,,,,,,,,,004,001,2025-01-24_14h46.24.780,NESC3137_N400_exp,2023.2.3,59.84429711001874,2025-01-24 14h47.04.312474 -0400,
bicycle,0,152,152,16,,,,,,,,,,,,,,,,,,,,,0.24860749999061227,,,,0.229306599998381,0.22941599998739548,,,,,,,,,,,,,,,,,,,,,,,,,,,,,,,,,,,,,,,,,,,,,,,,,,,,,,,,,,,,,,,,,,,,,,,,,,,,,,,004,001,2025-01-24_14h46.24.780,NESC3137_N400_exp,2023.2.3,59.84429711001874,2025-01-24 14h47.04.312474 -0400,
mushroom,0,153,153,101,,,,,,,,,,,,,,,,,,,,,0.24860749999061227,,,,0.22951909998664632,0.22970189998159185,,,,,,,,,,,,,,,,,,,,,,,,,,,,,,,,,,,,,,,,,,,,,,,,,,,,,,,,,,,,,,,,,,,,,,,,,,,,,,,004,001,2025-01-24_14h46.24.780,NESC3137_N400_exp,2023.2.3,59.84429711001874,2025-01-24 14h47.04.312474 -0400,
onion,0,154,154,104,,,,,,,,,,,,,,,,,,,,,0.24860749999061227,,,,0.2298020999878645,0.22997069999109954,,,,,,,,,,,,,,,,,,,,,,,,,,,,,,,,,,,,,,,,,,,,,,,,,,,,,,,,,,,,,,,,,,,,,,,,,,,,,,,004,001,2025-01-24_14h46.24.780,NESC3137_N400_exp,2023.2.3,59.84429711001874,2025-01-24 14h47.04.312474 -0400,
gloves,0,155,155,63,,,,,,,,,,,,,,,,,,,,,0.24860749999061227,,,,0.23007950000464916,0.23022229998605326,,,,,,,,,,,,,,,,,,,,,,,,,,,,,,,,,,,,,,,,,,,,,,,,,,,,,,,,,,,,,,,,,,,,,,,,,,,,,,,004,001,2025-01-24_14h46.24.780,NESC3137_N400_exp,2023.2.3,59.84429711001874,2025-01-24 14h47.04.312474 -0400,
nail,0,156,156,102,,,,,,,,,,,,,,,,,,,,,0.24860749999061227,,,,0.23035840000375174,0.2305288999923505,,,,,,,,,,,,,,,,,,,,,,,,,,,,,,,,,,,,,,,,,,,,,,,,,,,,,,,,,,,,,,,,,,,,,,,,,,,,,,,004,001,2025-01-24_14h46.24.780,NESC3137_N400_exp,2023.2.3,59.84429711001874,2025-01-24 14h47.04.312474 -0400,
butterfly,0,157,157,21,,,,,,,,,,,,,,,,,,,,,0.24860749999061227,,,,0.2306442999979481,0.23076909998781048,,,,,,,,,,,,,,,,,,,,,,,,,,,,,,,,,,,,,,,,,,,,,,,,,,,,,,,,,,,,,,,,,,,,,,,,,,,,,,,004,001,2025-01-24_14h46.24.780,NESC3137_N400_exp,2023.2.3,59.84429711001874,2025-01-24 14h47.04.312474 -0400,
scissors,0,158,158,135,,,,,,,,,,,,,,,,,,,,,0.24860749999061227,,,,0.23087719999602996,0.23098940000636503,,,,,,,,,,,,,,,,,,,,,,,,,,,,,,,,,,,,,,,,,,,,,,,,,,,,,,,,,,,,,,,,,,,,,,,,,,,,,,,004,001,2025-01-24_14h46.24.780,NESC3137_N400_exp,2023.2.3,59.84429711001874,2025-01-24 14h47.04.312474 -0400,
carrot,0,159,159,27,,,,,,,,,,,,,,,,,,,,,0.24860749999061227,,,,0.23109270000713877,0.23122940000030212,,,,,,,,,,,,,,,,,,,,,,,,,,,,,,,,,,,,,,,,,,,,,,,,,,,,,,,,,,,,,,,,,,,,,,,,,,,,,,,004,001,2025-01-24_14h46.24.780,NESC3137_N400_exp,2023.2.3,59.84429711001874,2025-01-24 14h47.04.312474 -0400,
doll,0,160,160,43,,,,,,,,,,,,,,,,,,,,,0.24860749999061227,,,,0.23136519998661242,0.23148960000253282,,,,,,,,,,,,,,,,,,,,,,,,,,,,,,,,,,,,,,,,,,,,,,,,,,,,,,,,,,,,,,,,,,,,,,,,,,,,,,,004,001,2025-01-24_14h46.24.780,NESC3137_N400_exp,2023.2.3,59.84429711001874,2025-01-24 14h47.04.312474 -0400,
fence,0,161,161,53,,,,,,,,,,,,,,,,,,,,,0.24860749999061227,,,,0.23161580000305548,0.23173239998868667,,,,,,,,,,,,,,,,,,,,,,,,,,,,,,,,,,,,,,,,,,,,,,,,,,,,,,,,,,,,,,,,,,,,,,,,,,,,,,,004,001,2025-01-24_14h46.24.780,NESC3137_N400_exp,2023.2.3,59.84429711001874,2025-01-24 14h47.04.312474 -0400,
sled,0,162,162,143,,,,,,,,,,,,,,,,,,,,,0.24860749999061227,,,,0.2318420999799855,0.23196129998541437,,,,,,,,,,,,,,,,,,,,,,,,,,,,,,,,,,,,,,,,,,,,,,,,,,,,,,,,,,,,,,,,,,,,,,,,,,,,,,,004,001,2025-01-24_14h46.24.780,NESC3137_N400_exp,2023.2.3,59.84429711001874,2025-01-24 14h47.04.312474 -0400,
basket,0,163,163,11,,,,,,,,,,,,,,,,,,,,,0.24860749999061227,,,,0.23209000000497326,0.2321988999901805,,,,,,,,,,,,,,,,,,,,,,,,,,,,,,,,,,,,,,,,,,,,,,,,,,,,,,,,,,,,,,,,,,,,,,,,,,,,,,,004,001,2025-01-24_14h46.24.780,NESC3137_N400_exp,2023.2.3,59.84429711001874,2025-01-24 14h47.04.312474 -0400,
well,0,164,164,172,,,,,,,,,,,,,,,,,,,,,0.24860749999061227,,,,0.2323084999807179,0.23241050000069663,,,,,,,,,,,,,,,,,,,,,,,,,,,,,,,,,,,,,,,,,,,,,,,,,,,,,,,,,,,,,,,,,,,,,,,,,,,,,,,004,001,2025-01-24_14h46.24.780,NESC3137_N400_exp,2023.2.3,59.84429711001874,2025-01-24 14h47.04.312474 -0400,
cow,0,165,165,38,,,,,,,,,,,,,,,,,,,,,0.24860749999061227,,,,0.23251529998378828,0.23263939999742433,,,,,,,,,,,,,,,,,,,,,,,,,,,,,,,,,,,,,,,,,,,,,,,,,,,,,,,,,,,,,,,,,,,,,,,,,,,,,,,004,001,2025-01-24_14h46.24.780,NESC3137_N400_exp,2023.2.3,59.84429711001874,2025-01-24 14h47.04.312474 -0400,
harp,0,166,166,73,,,,,,,,,,,,,,,,,,,,,0.24860749999061227,,,,0.23274300000048243,0.23286089999601245,,,,,,,,,,,,,,,,,,,,,,,,,,,,,,,,,,,,,,,,,,,,,,,,,,,,,,,,,,,,,,,,,,,,,,,,,,,,,,,004,001,2025-01-24_14h46.24.780,NESC3137_N400_exp,2023.2.3,59.84429711001874,2025-01-24 14h47.04.312474 -0400,
truck,0,167,167,164,,,,,,,,,,,,,,,,,,,,,0.24860749999061227,,,,0.2329596999916248,0.23305949999485165,,,,,,,,,,,,,,,,,,,,,,,,,,,,,,,,,,,,,,,,,,,,,,,,,,,,,,,,,,,,,,,,,,,,,,,,,,,,,,,004,001,2025-01-24_14h46.24.780,NESC3137_N400_exp,2023.2.3,59.84429711001874,2025-01-24 14h47.04.312474 -0400,
peach,0,168,168,111,,,,,,,,,,,,,,,,,,,,,0.24860749999061227,,,,0.2331570999813266,0.23325379999005236,,,,,,,,,,,,,,,,,,,,,,,,,,,,,,,,,,,,,,,,,,,,,,,,,,,,,,,,,,,,,,,,,,,,,,,,,,,,,,,004,001,2025-01-24_14h46.24.780,NESC3137_N400_exp,2023.2.3,59.84429711001874,2025-01-24 14h47.04.312474 -0400,
airplane,0,169,169,1,,,,,,,,,,,,,,,,,,,,,0.24860749999061227,,,,0.23335179997957312,0.23344889999134466,,,,,,,,,,,,,,,,,,,,,,,,,,,,,,,,,,,,,,,,,,,,,,,,,,,,,,,,,,,,,,,,,,,,,,,,,,,,,,,004,001,2025-01-24_14h46.24.780,NESC3137_N400_exp,2023.2.3,59.84429711001874,2025-01-24 14h47.04.312474 -0400,
glasses,0,170,170,62,,,,,,,,,,,,,,,,,,,,,0.24860749999061227,,,,0.23355020000599325,0.23370169999543577,,,,,,,,,,,,,,,,,,,,,,,,,,,,,,,,,,,,,,,,,,,,,,,,,,,,,,,,,,,,,,,,,,,,,,,,,,,,,,,004,001,2025-01-24_14h46.24.780,NESC3137_N400_exp,2023.2.3,59.84429711001874,2025-01-24 14h47.04.312474 -0400,
frog,0,171,171,58,,,,,,,,,,,,,,,,,,,,,0.24860749999061227,,,,0.23380049999104813,0.2339059000078123,,,,,,,,,,,,,,,,,,,,,,,,,,,,,,,,,,,,,,,,,,,,,,,,,,,,,,,,,,,,,,,,,,,,,,,,,,,,,,,004,001,2025-01-24_14h46.24.780,NESC3137_N400_exp,2023.2.3,59.84429711001874,2025-01-24 14h47.04.312474 -0400,
paintbrush,0,172,172,108,,,,,,,,,,,,,,,,,,,,,0.24860749999061227,,,,0.23400639998726547,0.2341069999965839,,,,,,,,,,,,,,,,,,,,,,,,,,,,,,,,,,,,,,,,,,,,,,,,,,,,,,,,,,,,,,,,,,,,,,,,,,,,,,,004,001,2025-01-24_14h46.24.780,NESC3137_N400_exp,2023.2.3,59.84429711001874,2025-01-24 14h47.04.312474 -0400,
heart,0,173,173,75,,,,,,,,,,,,,,,,,,,,,0.24860749999061227,,,,0.2342060999944806,0.23436509998282418,,,,,,,,,,,,,,,,,,,,,,,,,,,,,,,,,,,,,,,,,,,,,,,,,,,,,,,,,,,,,,,,,,,,,,,,,,,,,,,004,001,2025-01-24_14h46.24.780,NESC3137_N400_exp,2023.2.3,59.84429711001874,2025-01-24 14h47.04.312474 -0400,
recordplayer,0,174,174,127,,,,,,,,,,,,,,,,,,,,,0.24860749999061227,,,,0.234540699981153,0.23473239998565987,,,,,,,,,,,,,,,,,,,,,,,,,,,,,,,,,,,,,,,,,,,,,,,,,,,,,,,,,,,,,,,,,,,,,,,,,,,,,,,004,001,2025-01-24_14h46.24.780,NESC3137_N400_exp,2023.2.3,59.84429711001874,2025-01-24 14h47.04.312474 -0400,
whistle,0,175,175,174,,,,,,,,,,,,,,,,,,,,,0.24860749999061227,,,,0.23494910000590608,0.23514679999789223,,,,,,,,,,,,,,,,,,,,,,,,,,,,,,,,,,,,,,,,,,,,,,,,,,,,,,,,,,,,,,,,,,,,,,,,,,,,,,,004,001,2025-01-24_14h46.24.780,NESC3137_N400_exp,2023.2.3,59.84429711001874,2025-01-24 14h47.04.312474 -0400,
belt,0,176,176,15,,,,,,,,,,,,,,,,,,,,,0.24860749999061227,,,,0.2352584000036586,0.23542189999716356,,,,,,,,,,,,,,,,,,,,,,,,,,,,,,,,,,,,,,,,,,,,,,,,,,,,,,,,,,,,,,,,,,,,,,,,,,,,,,,004,001,2025-01-24_14h46.24.780,NESC3137_N400_exp,2023.2.3,59.84429711001874,2025-01-24 14h47.04.312474 -0400,
bed,0,177,177,13,,,,,,,,,,,,,,,,,,,,,0.24860749999061227,,,,0.23561489998246543,0.23582109998096712,,,,,,,,,,,,,,,,,,,,,,,,,,,,,,,,,,,,,,,,,,,,,,,,,,,,,,,,,,,,,,,,,,,,,,,,,,,,,,,004,001,2025-01-24_14h46.24.780,NESC3137_N400_exp,2023.2.3,59.84429711001874,2025-01-24 14h47.04.312474 -0400,
skunk,0,178,178,142,,,,,,,,,,,,,,,,,,,,,0.24860749999061227,,,,0.23594260000390932,0.23610189999453723,,,,,,,,,,,,,,,,,,,,,,,,,,,,,,,,,,,,,,,,,,,,,,,,,,,,,,,,,,,,,,,,,,,,,,,,,,,,,,,004,001,2025-01-24_14h46.24.780,NESC3137_N400_exp,2023.2.3,59.84429711001874,2025-01-24 14h47.04.312474 -0400,
snowman,0,179,179,145,,,,,,,,,,,,,,,,,,,,,0.24860749999061227,,,,0.23626859998330474,0.23646019998705015,,,,,,,,,,,,,,,,,,,,,,,,,,,,,,,,,,,,,,,,,,,,,,,,,,,,,,,,,,,,,,,,,,,,,,,,,,,,,,,004,001,2025-01-24_14h46.24.780,NESC3137_N400_exp,2023.2.3,59.84429711001874,2025-01-24 14h47.04.312474 -0400,
,,,,,0,0,0,0,,,,,,,,,,,,,,,,,0.24860749999061227,,,,,,0.23699679999845102,0.23745210000197403,,,,,,,,,,,,,,,,,,,,,,,,,,,,,,,,,,,,,,,,,,,,,,,,,,,,,,,,,,,,,,,,,,,,,,,,,,,,,004,001,2025-01-24_14h46.24.780,NESC3137_N400_exp,2023.2.3,59.84429711001874,2025-01-24 14h47.04.312474 -0400,
,,,,,,,,,,,,,,,,,,,,,,,,,,,,,,,,,0.2374808999884408,0.24860749999061227,0.24860749999061227,11.869213800004218,space,11.614692399976775,None,,,,,,,,,,,,,,,,,,,,,,,,,,,,,,,,,,,,,,,,,,,,,,,,,,,,,,,,,,,,,,,,,,,,,,004,001,2025-01-24_14h46.24.780,NESC3137_N400_exp,2023.2.3,59.84429711001874,2025-01-24 14h47.04.312474 -0400,
,,,,,,,,,0,0,0,0,,,,,,,,,,,,,11.886206700000912,,,,,,,,,,,,,,,11.869835399993462,11.886206700000912,12.386087499995483,12.369392099994002,12.369405100005679,12.386087499995483,12.869753979993401,14.387678800005233,14.371325499989325,14.371339899982559,15.522038700000849,15.522038700000849,15.906373300007544,axe,resources/stimuli/axe_foil.wav,right,right,1,372.59030001587234,right,1,0.37259030001587234,None,,,,,,,,,,,,,,,,,,,,,,,,,,,,,,,,,,,,,,,,,,,,,,,004,001,2025-01-24_14h46.24.780,NESC3137_N400_exp,2023.2.3,59.84429711001874,2025-01-24 14h47.04.312474 -0400,
,,,,,,,,,1,0,1,0,,,,,,,,,,,,,15.922417800000403,,,,,,,,,,,,,,,15.908028799982276,15.922417800000403,16.4231455999834,16.406734299991513,16.40674299999955,16.4231455999834,16.906826680005178,18.425018799985992,18.408744699991075,18.40875619999133,19.55939219999709,19.55939219999709,19.92705569998361,desk,resources/stimuli/desk.wav,left,left,1,360.2256000158377,left,1,0.3602256000158377,None,,,,,,,,,,,,,,,,,,,,,,,,,,,,,,,,,,,,,,,,,,,,,,,004,001,2025-01-24_14h46.24.780,NESC3137_N400_exp,2023.2.3,59.84429711001874,2025-01-24 14h47.04.312474 -0400,
,,,,,,,,,2,0,2,0,,,,,,,,,,,,,19.94310149998637,,,,,,,,,,,,,,,19.928294999990612,19.94310149998637,20.443797399988398,20.42755200000829,20.42756300000474,20.443797399988398,20.92753237998404,22.445676600007573,22.429420300002676,22.42943620000733,23.58006489998661,23.58006489998661,23.964500000001863,spider,resources/stimuli/spider.wav,left,left,1,379.28829999873415,left,1,0.37928829999873415,None,,,,,,,,,,,,,,,,,,,,,,,,,,,,,,,,,,,,,,,,,,,,,,,004,001,2025-01-24_14h46.24.780,NESC3137_N400_exp,2023.2.3,59.84429711001874,2025-01-24 14h47.04.312474 -0400,
,,,,,,,,,3,0,3,0,,,,,,,,,,,,,23.980588699982036,,,,,,,,,,,,,,,23.96561240000301,23.980588699982036,24.48110189998988,24.46499439998297,24.4650083000015,24.48110189998988,24.96477657999203,26.483105899998918,26.466742299991893,26.466755200002808,27.61744619999081,27.61744619999081,28.101946899987524,house,resources/stimuli/house.wav,left,left,1,477.6588999957312,left,1,0.4776588999957312,None,,,,,,,,,,,,,,,,,,,,,,,,,,,,,,,,,,,,,,,,,,,,,,,004,001,2025-01-24_14h46.24.780,NESC3137_N400_exp,2023.2.3,59.84429711001874,2025-01-24 14h47.04.312474 -0400,
,,,,,,,,,4,0,4,0,,,,,,,,,,,,,28.118012899998575,,,,,,,,,,,,,,,28.103054899984272,28.118012899998575,28.618381399981445,28.602884499996435,28.602894299983745,28.618381399981445,29.102420779995736,30.620515899994643,30.60422720000497,30.604238100000657,31.754864299990004,31.754864299990004,32.089417299983324,swan,resources/stimuli/swan.wav,left,left,1,331.76809997530654,left,1,0.33176809997530654,None,,,,,,,,,,,,,,,,,,,,,,,,,,,,,,,,,,,,,,,,,,,,,,,004,001,2025-01-24_14h46.24.780,NESC3137_N400_exp,2023.2.3,59.84429711001874,2025-01-24 14h47.04.312474 -0400,
,,,,,,,,,5,0,5,0,,,,,,,,,,,,,32.105194100004155,,,,,,,,,,,,,,,32.09078440000303,32.105194100004155,32.60571889998391,32.58953579998342,32.58954899999662,32.60571889998391,33.089535179987436,34.60776489999262,34.59170570000424,34.591715699993074,35.742280599981314,35.742280599981314,35.993197699979646,fish,resources/stimuli/fish.wav,left,left,1,241.1747000005562,left,1,0.24117470000055619,None,,,,,,,,,,,,,,,,,,,,,,,,,,,,,,,,,,,,,,,,,,,,,,,004,001,2025-01-24_14h46.24.780,NESC3137_N400_exp,2023.2.3,59.84429711001874,2025-01-24 14h47.04.312474 -0400,
,,,,,,,,,6,0,6,0,,,,,,,,,,,,,36.00918170000659,,,,,,,,,,,,,,,35.99465839998447,36.00918170000659,36.50966359997983,36.49349659998552,36.49351050000405,36.50966359997983,36.99344818000391,38.51183849998051,38.495469299989054,38.495484299986856,39.64617069999804,39.64617069999804,40.014357999985805,chain,resources/stimuli/chain.wav,left,left,1,353.1573000072967,left,1,0.3531573000072967,None,,,,,,,,,,,,,,,,,,,,,,,,,,,,,,,,,,,,,,,,,,,,,,,004,001,2025-01-24_14h46.24.780,NESC3137_N400_exp,2023.2.3,59.84429711001874,2025-01-24 14h47.04.312474 -0400,
,,,,,,,,,7,0,7,0,,,,,,,,,,,,,40.029833299980965,,,,,,,,,,,,,,,40.01555039998493,40.029833299980965,40.53037089999998,40.51403669998399,40.51405110000633,40.53037089999998,41.0142523800052,42.53229010000359,42.5161139999982,42.516128999996,43.66698209999595,43.66698209999595,43.95153489999939,gorilla,resources/stimuli/gorilla.wav,left,left,1,283.79970000241883,left,1,0.28379970000241883,None,,,,,,,,,,,,,,,,,,,,,,,,,,,,,,,,,,,,,,,,,,,,,,,004,001,2025-01-24_14h46.24.780,NESC3137_N400_exp,2023.2.3,59.84429711001874,2025-01-24 14h47.04.312474 -0400,
,,,,,,,,,8,0,8,0,,,,,,,,,,,,,43.967186399997445,,,,,,,,,,,,,,,43.95259889998124,43.967186399997445,44.46757029998116,44.45130679997965,44.45132039999589,44.46757029998116,44.951749079980075,46.46955939999316,46.45350420000614,46.45351950000622,47.60399959998904,47.60399959998904,48.00526969999191,anchor,resources/stimuli/anchor.wav,left,left,1,394.74649998010136,left,1,0.39474649998010136,None,,,,,,,,,,,,,,,,,,,,,,,,,,,,,,,,,,,,,,,,,,,,,,,004,001,2025-01-24_14h46.24.780,NESC3137_N400_exp,2023.2.3,59.84429711001874,2025-01-24 14h47.04.312474 -0400,
,,,,,,,,,9,0,9,0,,,,,,,,,,,,,48.02114359999541,,,,,,,,,,,,,,,48.0067899999849,48.02114359999541,48.5215901999909,48.50539489998482,48.50540589998127,48.5215901999909,49.005730179985406,50.52368300000671,50.50801940000383,50.50803019999876,51.65839619998587,51.65839619998587,52.376382099988405,piano,resources/stimuli/piano_foil.wav,right,right,1,708.2980999839492,right,1,0.7082980999839492,None,,,,,,,,,,,,,,,,,,,,,,,,,,,,,,,,,,,,,,,,,,,,,,,004,001,2025-01-24_14h46.24.780,NESC3137_N400_exp,2023.2.3,59.84429711001874,2025-01-24 14h47.04.312474 -0400,
,,,,,,,,,10,0,10,0,,,,,,,,,,,,,52.39209049998317,,,,,,,,,,,,,,,52.37760669999989,52.39209049998317,52.89258119999431,52.876495699980296,52.87651010000263,52.89258119999431,53.376504279996155,54.89468019999913,54.878797099983785,54.878807900007814,56.02922369999578,56.02922369999578,56.463845699996455,cake,resources/stimuli/cake_foil.wav,right,right,1,417.4973000190221,right,1,0.4174973000190221,None,,,,,,,,,,,,,,,,,,,,,,,,,,,,,,,,,,,,,,,,,,,,,,,004,001,2025-01-24_14h46.24.780,NESC3137_N400_exp,2023.2.3,59.84429711001874,2025-01-24 14h47.04.312474 -0400,
,,,,,,,,,11,0,11,0,,,,,,,,,,,,,56.479637499985984,,,,,,,,,,,,,,,56.46497219998855,56.479637499985984,56.98034650000045,56.96387939999113,56.96389270000509,56.98034650000045,57.463947979998196,58.982227900007274,58.966027899994515,58.96603819998563,60.11772079998627,60.11772079998627,60.43426989999716,leg,resources/stimuli/leg_foil.wav,right,right,1,313.23620001785457,right,1,0.31323620001785457,None,,,,,,,,,,,,,,,,,,,,,,,,,,,,,,,,,,,,,,,,,,,,,,,004,001,2025-01-24_14h46.24.780,NESC3137_N400_exp,2023.2.3,59.84429711001874,2025-01-24 14h47.04.312474 -0400,
,,,,,,,,,12,0,12,0,,,,,,,,,,,,,60.45022810000228,,,,,,,,,,,,,,,60.43556660000468,60.45022810000228,60.950940399983665,60.934626899979776,60.934642100008205,60.950940399983665,61.4346792799799,62.95293219998712,62.93683530000271,62.93684690000373,64.08720579999499,64.08720579999499,64.4052093999926,flag,resources/stimuli/flag_foil.wav,right,right,1,311.6194999893196,right,1,0.3116194999893196,None,,,,,,,,,,,,,,,,,,,,,,,,,,,,,,,,,,,,,,,,,,,,,,,004,001,2025-01-24_14h46.24.780,NESC3137_N400_exp,2023.2.3,59.84429711001874,2025-01-24 14h47.04.312474 -0400,
,,,,,,,,,13,0,13,0,,,,,,,,,,,,,64.42080500000156,,,,,,,,,,,,,,,64.40637280000374,64.42080500000156,64.92144929998904,64.90530139999464,64.9053151999833,64.92144929998904,65.40518927999365,66.92390689998865,66.90710899999249,66.90712479999638,68.05776389999664,68.05776389999664,68.40874069998972,vest,resources/stimuli/vest_foil.wav,right,right,1,341.1255000100937,right,1,0.3411255000100937,None,,,,,,,,,,,,,,,,,,,,,,,,,,,,,,,,,,,,,,,,,,,,,,,004,001,2025-01-24_14h46.24.780,NESC3137_N400_exp,2023.2.3,59.84429711001874,2025-01-24 14h47.04.312474 -0400,
,,,,,,,,,14,0,14,0,,,,,,,,,,,,,68.42503439998836,,,,,,,,,,,,,,,68.41022809999413,68.42503439998836,68.92536369999289,68.90912490000483,68.90913439998985,68.92536369999289,69.40919857999252,70.9273586999916,70.91110309999203,70.91111489999457,72.06172299999162,72.06172299999162,72.37961629999336,babycarriage,resources/stimuli/babycarriage_foil.wav,right,right,1,313.0276000010781,right,1,0.3130276000010781,None,,,,,,,,,,,,,,,,,,,,,,,,,,,,,,,,,,,,,,,,,,,,,,,004,001,2025-01-24_14h46.24.780,NESC3137_N400_exp,2023.2.3,59.84429711001874,2025-01-24 14h47.04.312474 -0400,
,,,,,,,,,15,0,15,0,,,,,,,,,,,,,72.39544389999355,,,,,,,,,,,,,,,72.38170890000765,72.39544389999355,72.89604009999312,72.879620599997,72.87963039998431,72.89604009999312,73.39664977998764,74.89804679999361,74.8825710999954,74.88258599999244,76.03244759998051,76.03244759998051,76.3166879999917,orange,resources/stimuli/orange.wav,left,left,1,278.5642000089865,left,1,0.2785642000089865,None,,,,,,,,,,,,,,,,,,,,,,,,,,,,,,,,,,,,,,,,,,,,,,,004,001,2025-01-24_14h46.24.780,NESC3137_N400_exp,2023.2.3,59.84429711001874,2025-01-24 14h47.04.312474 -0400,
,,,,,,,,,16,0,16,0,,,,,,,,,,,,,76.33269320000545,,,,,,,,,,,,,,,76.31783119999454,76.33269320000545,76.83320140000433,76.81700439998531,76.81702429999132,76.83320140000433,77.3171277800022,78.83510490000481,78.81914760000654,78.81915930000832,79.969694600004,79.969694600004,80.30393989998265,elephant,resources/stimuli/elephant_foil.wav,right,right,1,317.6087999891024,right,1,0.3176087999891024,None,,,,,,,,,,,,,,,,,,,,,,,,,,,,,,,,,,,,,,,,,,,,,,,004,001,2025-01-24_14h46.24.780,NESC3137_N400_exp,2023.2.3,59.84429711001874,2025-01-24 14h47.04.312474 -0400,
,,,,,,,,,17,0,17,0,,,,,,,,,,,,,80.32001279998804,,,,,,,,,,,,,,,80.30546360000153,80.32001279998804,80.82057389998226,80.80428939999547,80.80429989998811,80.82057389998226,81.30435557998426,82.82253429997945,82.80720749998,82.80721850000555,83.9569199999969,83.9569199999969,84.27504009997938,pear,resources/stimuli/pear_foil.wav,right,right,1,314.01579998782836,right,1,0.31401579998782836,None,,,,,,,,,,,,,,,,,,,,,,,,,,,,,,,,,,,,,,,,,,,,,,,004,001,2025-01-24_14h46.24.780,NESC3137_N400_exp,2023.2.3,59.84429711001874,2025-01-24 14h47.04.312474 -0400,
,,,,,,,,,18,0,18,0,,,,,,,,,,,,,84.29067260000738,,,,,,,,,,,,,,,84.27613280000514,84.29067260000738,84.79123569998774,84.77494050000678,84.77495369999087,84.79123569998774,85.27508197998687,86.7933839999896,86.77689079998527,86.77690169998095,87.92771620000713,87.92771620000713,88.57907589999377,violin,resources/stimuli/violin_foil.wav,right,right,1,647.262700018473,right,1,0.647262700018473,None,,,,,,,,,,,,,,,,,,,,,,,,,,,,,,,,,,,,,,,,,,,,,,,004,001,2025-01-24_14h46.24.780,NESC3137_N400_exp,2023.2.3,59.84429711001874,2025-01-24 14h47.04.312474 -0400,
,,,,,,,,,19,0,19,0,,,,,,,,,,,,,88.59491769998567,,,,,,,,,,,,,,,88.5804092999897,88.59491769998567,,89.11984010000015,89.1198502999905,89.12936689998605,89.57937367999985,91.13077349998639,91.11465509998379,91.11467049998464,92.2319628999976,92.2319628999976,92.49969500000589,bed,resources/stimuli/bed.wav,left,left,1,254.72629998694174,left,1,0.25472629998694174,None,,,,,,,,,,,,,,,,,,,,,,,,,,,,,,,,,,,,,,,,,,,,,,,004,001,2025-01-24_14h46.24.780,NESC3137_N400_exp,2023.2.3,59.84429711001874,2025-01-24 14h47.04.312474 -0400,
,,,,,,,,,20,0,20,0,,,,,,,,,,,,,92.5156003999873,,,,,,,,,,,,,,,92.50142580000102,92.5156003999873,93.01622540000244,92.99980329998652,92.99981330000446,93.01622540000244,93.49992248000054,95.0194644999865,95.00176909999573,95.00178150000283,96.15269659998012,96.15269659998012,96.486846099986,eye,resources/stimuli/eye.wav,left,left,1,326.3176999753341,left,1,0.3263176999753341,None,,,,,,,,,,,,,,,,,,,,,,,,,,,,,,,,,,,,,,,,,,,,,,,004,001,2025-01-24_14h46.24.780,NESC3137_N400_exp,2023.2.3,59.84429711001874,2025-01-24 14h47.04.312474 -0400,
,,,,,,,,,21,0,21,0,,,,,,,,,,,,,96.5028134000022,,,,,,,,,,,,,,,96.48824169998989,96.5028134000022,97.00323629999184,96.98718880000524,96.98720969998976,97.00323629999184,97.48731077998237,99.00532810000004,98.98963860000367,98.98965629999293,100.14004110000678,100.14004110000678,100.50780009999289,candle,resources/stimuli/candle.wav,left,left,1,354.6059000073001,left,1,0.3546059000073001,None,,,,,,,,,,,,,,,,,,,,,,,,,,,,,,,,,,,,,,,,,,,,,,,004,001,2025-01-24_14h46.24.780,NESC3137_N400_exp,2023.2.3,59.84429711001874,2025-01-24 14h47.04.312474 -0400,
,,,,,,,,,22,0,22,0,,,,,,,,,,,,,100.52351979998639,,,,,,,,,,,,,,,100.5090879999916,100.52351979998639,101.02389320000657,101.0078011000005,101.00781499998993,101.02389320000657,101.5082038799912,103.02612510000472,103.00986849999754,103.00987949999399,104.16051799998968,104.16051799998968,104.49521920000552,tiger,resources/stimuli/tiger_foil.wav,right,right,1,318.10140001471154,right,1,0.31810140001471154,None,,,,,,,,,,,,,,,,,,,,,,,,,,,,,,,,,,,,,,,,,,,,,,,004,001,2025-01-24_14h46.24.780,NESC3137_N400_exp,2023.2.3,59.84429711001874,2025-01-24 14h47.04.312474 -0400,
,,,,,,,,,23,0,23,0,,,,,,,,,,,,,104.51092619998963,,,,,,,,,,,,,,,104.49637069998425,104.51092619998963,105.01135489999433,104.99514849999105,104.99516140000196,105.01135489999433,105.49526798000734,107.01327689999016,106.99770279999939,106.99771969998255,108.14786060000188,108.14786060000188,108.51596489999793,heart,resources/stimuli/heart_foil.wav,right,right,1,355.70580000057817,right,1,0.35570580000057817,None,,,,,,,,,,,,,,,,,,,,,,,,,,,,,,,,,,,,,,,,,,,,,,,004,001,2025-01-24_14h46.24.780,NESC3137_N400_exp,2023.2.3,59.84429711001874,2025-01-24 14h47.04.312474 -0400,
,,,,,,,,,24,0,24,0,,,,,,,,,,,,,108.53163359998143,,,,,,,,,,,,,,,108.51716809999198,108.53163359998143,109.03223330000765,109.01580369999283,109.0158167000045,109.03223330000765,109.51587157999457,111.0341259999841,111.01774959999602,111.01776180000161,112.1692303000018,112.1692303000018,112.40289539998048,dog,resources/stimuli/dog_foil.wav,right,right,1,222.49220000230707,right,1,0.22249220000230707,None,,,,,,,,,,,,,,,,,,,,,,,,,,,,,,,,,,,,,,,,,,,,,,,004,001,2025-01-24_14h46.24.780,NESC3137_N400_exp,2023.2.3,59.84429711001874,2025-01-24 14h47.04.312474 -0400,
,,,,,,,,,25,0,25,0,,,,,,,,,,,,,112.42016029998194,,,,,,,,,,,,,,,112.40408959999331,112.42016029998194,112.91917300000205,112.90293250000104,112.90294299999368,112.91917300000205,113.40307057998434,114.92124669998884,114.90496590000112,114.90497659999528,116.05574429998524,116.05574429998524,116.3734416999796,pants,resources/stimuli/pants.wav,left,left,1,310.827600012999,left,1,0.31082760001299903,None,,,,,,,,,,,,,,,,,,,,,,,,,,,,,,,,,,,,,,,,,,,,,,,004,001,2025-01-24_14h46.24.780,NESC3137_N400_exp,2023.2.3,59.84429711001874,2025-01-24 14h47.04.312474 -0400,
,,,,,,,,,26,0,26,0,,,,,,,,,,,,,116.38940169999842,,,,,,,,,,,,,,,116.3746074999799,116.38940169999842,116.88987529999577,116.87380489998031,116.87381950000417,116.88987529999577,117.37386117998103,118.89183330000378,118.8757872999995,118.87581120000686,120.02633180000703,120.02633180000703,120.41073380000307,bicycle,resources/stimuli/bicycle.wav,left,left,1,380.2764000138268,left,1,0.3802764000138268,None,,,,,,,,,,,,,,,,,,,,,,,,,,,,,,,,,,,,,,,,,,,,,,,004,001,2025-01-24_14h46.24.780,NESC3137_N400_exp,2023.2.3,59.84429711001874,2025-01-24 14h47.04.312474 -0400,
,,,,,,,,,27,0,27,0,,,,,,,,,,,,,120.42675829998916,,,,,,,,,,,,,,,120.41187720000744,120.42675829998916,120.92718169998261,120.91093419998651,120.91094309999608,120.92718169998261,121.41114558000409,122.92927799999597,122.91308189998381,122.91309909999836,124.06373160000658,124.06373160000658,124.1484586999868,drum,resources/stimuli/drum.wav,left,left,1,78.89619999332353,left,1,0.07889619999332353,None,,,,,,,,,,,,,,,,,,,,,,,,,,,,,,,,,,,,,,,,,,,,,,,004,001,2025-01-24_14h46.24.780,NESC3137_N400_exp,2023.2.3,59.84429711001874,2025-01-24 14h47.04.312474 -0400,
,,,,,,,,,28,0,28,0,,,,,,,,,,,,,124.16382149999845,,,,,,,,,,,,,,,124.15002539998386,124.16382149999845,124.66445879999083,124.64851549998275,124.64852669998072,124.66445879999083,125.16523538000475,126.66639840000425,126.65015519998269,126.65017149999039,127.80105469998671,127.80105469998671,128.4188162999926,plug,resources/stimuli/plug_foil.wav,right,right,1,605.9704000072088,right,1,0.6059704000072088,None,,,,,,,,,,,,,,,,,,,,,,,,,,,,,,,,,,,,,,,,,,,,,,,004,001,2025-01-24_14h46.24.780,NESC3137_N400_exp,2023.2.3,59.84429711001874,2025-01-24 14h47.04.312474 -0400,
,,,,,,,,,29,0,29,0,,,,,,,,,,,,,128.4352027999994,,,,,,,,,,,,,,,128.42030050000176,128.4352027999994,128.93623580000713,128.91904439998325,128.9190530999913,128.93623580000713,129.41905647999664,130.93719820000115,130.92096899999888,130.92098140000599,132.07174200000009,132.07174200000009,132.5063053999911,snake,resources/stimuli/snake.wav,left,left,1,431.31879999418743,left,1,0.43131879999418743,None,,,,,,,,,,,,,,,,,,,,,,,,,,,,,,,,,,,,,,,,,,,,,,,004,001,2025-01-24_14h46.24.780,NESC3137_N400_exp,2023.2.3,59.84429711001874,2025-01-24 14h47.04.312474 -0400,
,,,,,,,,,30,0,30,0,,,,,,,,,,,,,132.52214159999858,,,,,,,,,,,,,,,132.50793970000814,132.52214159999858,133.02262539998628,133.0064521000022,133.00646549998783,133.02262539998628,133.50650537998007,135.02465449998272,135.0084181999846,135.00843329998315,136.15945669999928,136.15945669999928,136.46053119999124,banana,resources/stimuli/banana_foil.wav,right,right,1,296.00590001791716,right,1,0.29600590001791716,None,,,,,,,,,,,,,,,,,,,,,,,,,,,,,,,,,,,,,,,,,,,,,,,004,001,2025-01-24_14h46.24.780,NESC3137_N400_exp,2023.2.3,59.84429711001874,2025-01-24 14h47.04.312474 -0400,
,,,,,,,,,31,0,31,0,,,,,,,,,,,,,136.47609519999241,,,,,,,,,,,,,,,136.46210879998398,136.47609519999241,136.97716360000777,136.96062040000106,136.96062939998228,136.97716360000777,137.46047767999988,138.97913069999777,138.96234790000017,138.96236299999873,140.1131414999836,140.1131414999836,140.41441070000292,doll,resources/stimuli/doll_foil.wav,right,right,1,294.1623999795411,right,1,0.2941623999795411,None,,,,,,,,,,,,,,,,,,,,,,,,,,,,,,,,,,,,,,,,,,,,,,,004,001,2025-01-24_14h46.24.780,NESC3137_N400_exp,2023.2.3,59.84429711001874,2025-01-24 14h47.04.312474 -0400,
,,,,,,,,,32,0,32,0,,,,,,,,,,,,,140.43003540000063,,,,,,,,,,,,,,,140.41589589999057,140.43003540000063,140.93068689998472,140.91434689998277,140.9143569000007,140.93068689998472,141.41480947999224,142.93287540000165,142.91633680000086,142.916352500004,144.06719780000276,144.06719780000276,144.31808179998188,wineglass,resources/stimuli/wineglass_foil.wav,right,right,1,236.06460000155494,right,1,0.23606460000155494,None,,,,,,,,,,,,,,,,,,,,,,,,,,,,,,,,,,,,,,,,,,,,,,,004,001,2025-01-24_14h46.24.780,NESC3137_N400_exp,2023.2.3,59.84429711001874,2025-01-24 14h47.04.312474 -0400,
,,,,,,,,,33,0,33,0,,,,,,,,,,,,,144.33393449999858,,,,,,,,,,,,,,,144.3191999999981,144.33393449999858,144.8344625000027,144.81854189999285,144.81856059998972,144.8344625000027,145.31866617998747,146.83689549998962,146.82009679998737,146.82010899999295,147.97111250000307,147.97111250000307,148.2887730000075,gloves,resources/stimuli/gloves.wav,left,left,1,308.41560001135804,left,1,0.30841560001135804,None,,,,,,,,,,,,,,,,,,,,,,,,,,,,,,,,,,,,,,,,,,,,,,,004,001,2025-01-24_14h46.24.780,NESC3137_N400_exp,2023.2.3,59.84429711001874,2025-01-24 14h47.04.312474 -0400,
,,,,,,,,,34,0,34,0,,,,,,,,,,,,,148.30454459998873,,,,,,,,,,,,,,,148.28997429998708,148.30454459998873,148.80503489999683,148.7890029999835,148.78901380000752,148.80503489999683,149.28916938000765,150.80706809999538,150.79172109998763,150.79173470000387,151.94166149999364,151.94166149999364,152.3594366000034,wagon,resources/stimuli/wagon.wav,right,left,0,408.8096999912523,right,0,0.4088096999912523,None,,,,,,,,,,,,,,,,,,,,,,,,,,,,,,,,,,,,,,,,,,,,,,,004,001,2025-01-24_14h46.24.780,NESC3137_N400_exp,2023.2.3,59.84429711001874,2025-01-24 14h47.04.312474 -0400,
,,,,,,,,,35,0,35,0,,,,,,,,,,,,,152.37527099999716,,,,,,,,,,,,,,,152.3609654000029,152.37527099999716,152.87579259998165,152.85964089998743,152.85965060000308,152.87579259998165,153.35998437999223,154.8778037999873,154.86152639999636,154.86153930000728,156.01236930000596,156.01236930000596,156.34672989998944,skunk,resources/stimuli/skunk.wav,right,left,0,330.0139000057243,right,0,0.3300139000057243,None,,,,,,,,,,,,,,,,,,,,,,,,,,,,,,,,,,,,,,,,,,,,,,,004,001,2025-01-24_14h46.24.780,NESC3137_N400_exp,2023.2.3,59.84429711001874,2025-01-24 14h47.04.312474 -0400,
,,,,,,,,,36,0,36,0,,,,,,,,,,,,,156.36267070000758,,,,,,,,,,,,,,,156.3484776999976,156.36267070000758,156.86307510000188,156.84701599998516,156.84702539999853,156.86307510000188,157.347114079984,158.86519620000036,158.84907549998024,158.8490935000009,159.9997779999976,159.9997779999976,160.267571400007,boot,resources/stimuli/boot_foil.wav,right,right,1,263.90380001976155,right,1,0.26390380001976155,None,,,,,,,,,,,,,,,,,,,,,,,,,,,,,,,,,,,,,,,,,,,,,,,004,001,2025-01-24_14h46.24.780,NESC3137_N400_exp,2023.2.3,59.84429711001874,2025-01-24 14h47.04.312474 -0400,
,,,,,,,,,37,0,37,0,,,,,,,,,,,,,160.2831884000043,,,,,,,,,,,,,,,160.26975569999195,160.2831884000043,160.7837740999821,160.76755960000446,160.76757359999465,160.7837740999821,161.28423387999936,162.7858570999815,162.76935640000738,162.76936869998462,163.9201153999893,163.9201153999893,164.18796949999523,recordplayer,resources/stimuli/recordplayer_foil.wav,right,right,1,262.73879999644123,right,1,0.26273879999644123,None,,,,,,,,,,,,,,,,,,,,,,,,,,,,,,,,,,,,,,,,,,,,,,,004,001,2025-01-24_14h46.24.780,NESC3137_N400_exp,2023.2.3,59.84429711001874,2025-01-24 14h47.04.312474 -0400,
,,,,,,,,,38,0,38,0,,,,,,,,,,,,,164.20366840000497,,,,,,,,,,,,,,,164.1894988999993,164.20366840000497,164.70425300000352,164.68810139998095,164.6881199000054,164.70425300000352,165.18813837998022,166.7062631000008,166.69005040000775,166.69006170000648,167.8407498000015,167.8407498000015,168.57610790000763,television,resources/stimuli/television.wav,left,left,1,734.3938999983948,left,1,0.7343938999983948,None,,,,,,,,,,,,,,,,,,,,,,,,,,,,,,,,,,,,,,,,,,,,,,,004,001,2025-01-24_14h46.24.780,NESC3137_N400_exp,2023.2.3,59.84429711001874,2025-01-24 14h47.04.312474 -0400,
,,,,,,,,,39,0,39,0,,,,,,,,,,,,,168.5915445999999,,,,,,,,,,,,,,,168.57728890000726,168.5915445999999,169.09204529999988,169.0757423999894,169.0757525000081,169.09204529999988,169.57614838000444,171.09399349999148,171.0778126999794,171.07782839998254,172.22841049998533,172.22841049998533,172.57956099999137,ladder,resources/stimuli/ladder_foil.wav,right,right,1,346.5703000256326,right,1,0.3465703000256326,None,,,,,,,,,,,,,,,,,,,,,,,,,,,,,,,,,,,,,,,,,,,,,,,004,001,2025-01-24_14h46.24.780,NESC3137_N400_exp,2023.2.3,59.84429711001874,2025-01-24 14h47.04.312474 -0400,
,,,,,,,,,40,0,40,0,,,,,,,,,,,,,172.59557159998803,,,,,,,,,,,,,,,172.58075579997967,172.59557159998803,173.09618209998007,173.07973689999199,173.0797515999875,173.09618209998007,173.5798003799893,175.09802529998706,175.08181249999325,175.08182540000416,176.2327105999866,176.2327105999866,176.5333686999802,harp,resources/stimuli/harp_foil.wav,right,right,1,294.5262000139337,right,1,0.2945262000139337,None,,,,,,,,,,,,,,,,,,,,,,,,,,,,,,,,,,,,,,,,,,,,,,,004,001,2025-01-24_14h46.24.780,NESC3137_N400_exp,2023.2.3,59.84429711001874,2025-01-24 14h47.04.312474 -0400,
,,,,,,,,,41,0,41,0,,,,,,,,,,,,,176.54940180000267,,,,,,,,,,,,,,,176.53451289999066,176.54940180000267,177.05001039998024,177.0337518999877,177.03376339998795,177.05001039998024,177.53372248000522,179.05195940000704,179.0360348999966,179.03606220000074,180.18628359999275,180.18628359999275,180.4540744999831,accordion,resources/stimuli/accordion_foil.wav,right,right,1,253.3028000034392,right,1,0.2533028000034392,None,,,,,,,,,,,,,,,,,,,,,,,,,,,,,,,,,,,,,,,,,,,,,,,004,001,2025-01-24_14h46.24.780,NESC3137_N400_exp,2023.2.3,59.84429711001874,2025-01-24 14h47.04.312474 -0400,
,,,,,,,,,42,0,42,0,,,,,,,,,,,,,180.47008490000735,,,,,,,,,,,,,,,180.45517319999635,180.47008490000735,180.97053769999184,180.95463120000204,180.954645299993,180.97053769999184,181.4543398800044,182.9724820999836,182.9563128000009,182.95632870000554,184.1069356999942,184.1069356999942,184.55875929998,carrot,resources/stimuli/carrot_foil.wav,right,right,1,443.8170999928843,right,1,0.4438170999928843,None,,,,,,,,,,,,,,,,,,,,,,,,,,,,,,,,,,,,,,,,,,,,,,,004,001,2025-01-24_14h46.24.780,NESC3137_N400_exp,2023.2.3,59.84429711001874,2025-01-24 14h47.04.312474 -0400,
,,,,,,,,,43,0,43,0,,,,,,,,,,,,,184.57410949998302,,,,,,,,,,,,,,,184.56007330000284,184.57410949998302,185.07464609999442,185.05833279999206,185.058346899983,185.07464609999442,185.55868277998815,187.07673319999594,187.0603906000033,187.06040669998038,188.21141180000268,188.21141180000268,189.36320140000316,eagle,resources/stimuli/eagle.wav,left,left,1,1139.6550000063144,left,1,1.1396550000063144,None,,,,,,,,,,,,,,,,,,,,,,,,,,,,,,,,,,,,,,,,,,,,,,,004,001,2025-01-24_14h46.24.780,NESC3137_N400_exp,2023.2.3,59.84429711001874,2025-01-24 14h47.04.312474 -0400,
,,,,,,,,,44,0,44,0,0,0,0,0,,,,,,,,,193.5832345999952,,,,,,,,,,,,,,,189.3642915999808,189.37930279999273,189.87976149999304,189.86344590000226,189.86345609999262,189.87976149999304,190.363377379984,191.8813458000077,191.86522019997938,191.86523160000797,193.01599869999336,193.01599869999336,193.56719629999134,shoe,resources/stimuli/shoe_foil.wav,right,right,1,543.3790999813937,right,1,0.5433790999813937,None,193.56849679999868,193.5832345999952,223.57977959999698,223.57977959999698,223.5964458999806,225.4488982000039,space,1.858954099996481,None,,,,,,,,,,,,,,,,,,,,,,,,,,,,,,,,,,,,,,004,001,2025-01-24_14h46.24.780,NESC3137_N400_exp,2023.2.3,59.84429711001874,2025-01-24 14h47.04.312474 -0400,
,,,,,,,,,44,0,44,0,,,,,,,,,,,,,,,,,,,,,,,,,,,,,,,,,,,,,,,,,,,,,,,,,,,,,,,,,,,,,,,,,,,,,,,,,,,,,,,,,,,,,,,,,,,,,,,,,004,001,2025-01-24_14h46.24.780,NESC3137_N400_exp,2023.2.3,59.84429711001874,2025-01-24 14h47.04.312474 -0400,
,,,,,,,,,45,0,45,0,,,,,,,,,,,,,225.4651753999933,,,,,,,,,,,,,,,225.44952140000532,225.4651753999933,225.96578050000244,225.94942059999448,225.94943159999093,225.96578050000244,226.4492465799878,227.9678340999817,227.9516856999835,227.95172209999873,229.1029906999902,229.1029906999902,229.4366638000065,leaf,resources/stimuli/leaf_foil.wav,right,right,1,319.38249999075197,right,1,0.31938249999075197,None,,,,,,,,,,,,,,,,,,,,,,,,,,,,,,,,,,,,,,,,,,,,,,,004,001,2025-01-24_14h46.24.780,NESC3137_N400_exp,2023.2.3,59.84429711001874,2025-01-24 14h47.04.312474 -0400,
,,,,,,,,,46,0,46,0,,,,,,,,,,,,,229.45250539999688,,,,,,,,,,,,,,,229.43776669999352,229.45250539999688,229.95280509997974,229.93652479999582,229.93653609999456,229.95280509997974,230.4365027799824,231.95502880000276,231.93840779998573,231.93841859998065,233.08922289998736,233.08922289998736,233.37351139998646,nail,resources/stimuli/nail.wav,left,left,1,277.4922999960836,left,1,0.2774922999960836,None,,,,,,,,,,,,,,,,,,,,,,,,,,,,,,,,,,,,,,,,,,,,,,,004,001,2025-01-24_14h46.24.780,NESC3137_N400_exp,2023.2.3,59.84429711001874,2025-01-24 14h47.04.312474 -0400,
,,,,,,,,,47,0,47,0,,,,,,,,,,,,,233.38948779998464,,,,,,,,,,,,,,,233.37476459998288,233.38948779998464,233.88998549999087,233.87377249999554,233.8737862999842,233.88998549999087,234.373914280007,235.89201919999323,235.87589140000637,235.87590680000721,237.02671780000674,237.02671780000674,237.360992300004,vase,resources/stimuli/vase.wav,left,left,1,324.0792999858968,left,1,0.3240792999858968,None,,,,,,,,,,,,,,,,,,,,,,,,,,,,,,,,,,,,,,,,,,,,,,,004,001,2025-01-24_14h46.24.780,NESC3137_N400_exp,2023.2.3,59.84429711001874,2025-01-24 14h47.04.312474 -0400,
,,,,,,,,,48,0,48,0,,,,,,,,,,,,,237.37687279999955,,,,,,,,,,,,,,,237.36239349999232,237.37687279999955,237.87744660000317,237.86162630000035,237.86163719999604,237.87744660000317,238.36147167999587,239.87939699998242,239.8631647999864,239.86317910000798,241.01374369999394,241.01374369999394,241.36483209999278,rooster,resources/stimuli/rooster.wav,left,left,1,336.7119000176899,left,1,0.3367119000176899,None,,,,,,,,,,,,,,,,,,,,,,,,,,,,,,,,,,,,,,,,,,,,,,,004,001,2025-01-24_14h46.24.780,NESC3137_N400_exp,2023.2.3,59.84429711001874,2025-01-24 14h47.04.312474 -0400,
,,,,,,,,,49,0,49,0,,,,,,,,,,,,,241.3808549999958,,,,,,,,,,,,,,,241.36604379999335,241.3808549999958,241.88139319999027,241.86516539999866,241.86517449998064,241.88139319999027,242.36519568000512,243.88370469998335,243.8670623000071,243.86707839998417,245.01946479998878,245.01946479998878,245.3526361999975,peach,resources/stimuli/peach.wav,left,left,1,316.6143999842461,left,1,0.3166143999842461,None,,,,,,,,,,,,,,,,,,,,,,,,,,,,,,,,,,,,,,,,,,,,,,,004,001,2025-01-24_14h46.24.780,NESC3137_N400_exp,2023.2.3,59.84429711001874,2025-01-24 14h47.04.312474 -0400,
,,,,,,,,,50,0,50,0,,,,,,,,,,,,,245.3683197000064,,,,,,,,,,,,,,,245.35378089998267,245.3683197000064,245.8685681000061,245.85273439998855,245.8527450999827,245.8685681000061,246.35245027998752,247.87072129998705,247.85453199999756,247.85454709999613,249.0051051999908,249.0051051999908,249.35621399999945,sheep,resources/stimuli/sheep_foil.wav,right,right,1,345.2264999796171,right,1,0.3452264999796171,None,,,,,,,,,,,,,,,,,,,,,,,,,,,,,,,,,,,,,,,,,,,,,,,004,001,2025-01-24_14h46.24.780,NESC3137_N400_exp,2023.2.3,59.84429711001874,2025-01-24 14h47.04.312474 -0400,
,,,,,,,,,51,0,51,0,,,,,,,,,,,,,249.3721586999891,,,,,,,,,,,,,,,249.35744890000205,249.3721586999891,249.87255490000825,249.8565207000065,249.8565346999967,249.87255490000825,250.35649988000222,251.87473389998195,251.85832909998135,251.85834000000614,253.00904330000049,253.00904330000049,253.3940740999824,church,resources/stimuli/church_foil.wav,right,right,1,374.1251000028569,right,1,0.3741251000028569,None,,,,,,,,,,,,,,,,,,,,,,,,,,,,,,,,,,,,,,,,,,,,,,,004,001,2025-01-24_14h46.24.780,NESC3137_N400_exp,2023.2.3,59.84429711001874,2025-01-24 14h47.04.312474 -0400,
,,,,,,,,,52,0,52,0,,,,,,,,,,,,,253.40949839999666,,,,,,,,,,,,,,,253.39517709999927,253.40949839999666,253.91037420000066,253.89386779998313,253.89387939998414,253.91037420000066,254.39386427999415,255.91206909998436,255.8957526999875,255.89576499999384,257.04683760000626,257.04683760000626,257.6978627000062,hat,resources/stimuli/hat.wav,left,left,1,639.9856000207365,left,1,0.6399856000207365,None,,,,,,,,,,,,,,,,,,,,,,,,,,,,,,,,,,,,,,,,,,,,,,,004,001,2025-01-24_14h46.24.780,NESC3137_N400_exp,2023.2.3,59.84429711001874,2025-01-24 14h47.04.312474 -0400,
,,,,,,,,,53,0,53,0,,,,,,,,,,,,,257.71378309998545,,,,,,,,,,,,,,,257.69899949998944,257.71378309998545,258.2143526999862,258.19799280000734,258.1980057999899,258.2143526999862,258.6981521800073,260.216356799996,260.2002724999911,260.2002844999952,261.35203350000666,261.35203350000666,261.6688785000006,jacket,resources/stimuli/jacket_foil.wav,right,right,1,310.7686000003014,right,1,0.3107686000003014,None,,,,,,,,,,,,,,,,,,,,,,,,,,,,,,,,,,,,,,,,,,,,,,,004,001,2025-01-24_14h46.24.780,NESC3137_N400_exp,2023.2.3,59.84429711001874,2025-01-24 14h47.04.312474 -0400,
,,,,,,,,,54,0,54,0,,,,,,,,,,,,,261.6844444999879,,,,,,,,,,,,,,,261.670000299986,261.6844444999879,262.185026799998,262.16893699998036,262.1689464999945,262.185026799998,262.66901017999334,264.18681839999044,264.17072639998514,264.17073849998997,265.3213523000013,265.3213523000013,265.62242759999936,lock,resources/stimuli/lock_foil.wav,right,right,1,285.1385000103619,right,1,0.2851385000103619,None,,,,,,,,,,,,,,,,,,,,,,,,,,,,,,,,,,,,,,,,,,,,,,,004,001,2025-01-24_14h46.24.780,NESC3137_N400_exp,2023.2.3,59.84429711001874,2025-01-24 14h47.04.312474 -0400,
,,,,,,,,,55,0,55,0,,,,,,,,,,,,,265.6384051000059,,,,,,,,,,,,,,,265.623685700004,265.6384051000059,266.13897060000454,266.1227530000033,266.1227624999883,266.13897060000454,266.62269997998663,268.1409768000012,268.1248556000064,268.1248796999862,269.27539229998365,269.27539229998365,269.5599346999952,mountain,resources/stimuli/mountain_foil.wav,right,right,1,275.57600001455285,right,1,0.27557600001455285,None,,,,,,,,,,,,,,,,,,,,,,,,,,,,,,,,,,,,,,,,,,,,,,,004,001,2025-01-24_14h46.24.780,NESC3137_N400_exp,2023.2.3,59.84429711001874,2025-01-24 14h47.04.312474 -0400,
,,,,,,,,,56,0,56,0,,,,,,,,,,,,,269.57574169998406,,,,,,,,,,,,,,,269.5610282999987,269.57574169998406,270.07610839998233,270.06041710000136,270.0604323000007,270.07610839998233,270.56034297999867,272.0781683999812,272.06201369999326,272.06202349998057,273.2125646999921,273.2125646999921,273.4975167999801,watermelon,resources/stimuli/watermelon_foil.wav,right,right,1,281.8847000016831,right,1,0.2818847000016831,None,,,,,,,,,,,,,,,,,,,,,,,,,,,,,,,,,,,,,,,,,,,,,,,004,001,2025-01-24_14h46.24.780,NESC3137_N400_exp,2023.2.3,59.84429711001874,2025-01-24 14h47.04.312474 -0400,
,,,,,,,,,57,0,57,0,,,,,,,,,,,,,273.5129318999825,,,,,,,,,,,,,,,273.49924129998544,273.5129318999825,274.01337709999643,273.9973645999853,273.9973769999924,274.01337709999643,274.5140018799895,276.01549940000405,275.99919649999356,275.9992127000005,277.1499136000057,277.1499136000057,277.45144289999735,onion,resources/stimuli/onion.wav,left,left,1,296.6277999803424,left,1,0.2966277999803424,None,,,,,,,,,,,,,,,,,,,,,,,,,,,,,,,,,,,,,,,,,,,,,,,004,001,2025-01-24_14h46.24.780,NESC3137_N400_exp,2023.2.3,59.84429711001874,2025-01-24 14h47.04.312474 -0400,
,,,,,,,,,58,0,58,0,,,,,,,,,,,,,277.4668881999969,,,,,,,,,,,,,,,277.4526965999976,277.4668881999969,277.9673662999994,277.9512029000034,277.9512134999968,277.9673662999994,278.45172867999935,279.9692811999994,279.9536537999811,279.9536654999829,281.1038117999851,281.1038117999851,281.42163629998686,fryingpan,resources/stimuli/fryingpan_foil.wav,right,right,1,310.7008000079077,right,1,0.3107008000079077,None,,,,,,,,,,,,,,,,,,,,,,,,,,,,,,,,,,,,,,,,,,,,,,,004,001,2025-01-24_14h46.24.780,NESC3137_N400_exp,2023.2.3,59.84429711001874,2025-01-24 14h47.04.312474 -0400,
,,,,,,,,,59,0,59,0,,,,,,,,,,,,,281.43745070000296,,,,,,,,,,,,,,,281.422716400004,281.43745070000296,281.93793479999295,281.921768900007,281.9217795000004,281.93793479999295,282.42181937999266,283.9400488999963,283.9236656999856,283.923676699982,285.07444239998586,285.07444239998586,285.37559569999576,star,resources/stimuli/star_foil.wav,right,right,1,299.9215000018012,right,1,0.2999215000018012,None,,,,,,,,,,,,,,,,,,,,,,,,,,,,,,,,,,,,,,,,,,,,,,,004,001,2025-01-24_14h46.24.780,NESC3137_N400_exp,2023.2.3,59.84429711001874,2025-01-24 14h47.04.312474 -0400,
,,,,,,,,,60,0,60,0,,,,,,,,,,,,,285.3914976999804,,,,,,,,,,,,,,,285.37756249998347,285.3914976999804,285.8919837999856,285.8757576000062,285.87576719999197,285.8919837999856,286.3760710799863,287.8939337999909,287.8778820000007,287.87789449997945,289.0283584999852,289.0283584999852,289.3294121999934,tree,resources/stimuli/tree.wav,left,left,1,298.1073999835644,left,1,0.2981073999835644,None,,,,,,,,,,,,,,,,,,,,,,,,,,,,,,,,,,,,,,,,,,,,,,,004,001,2025-01-24_14h46.24.780,NESC3137_N400_exp,2023.2.3,59.84429711001874,2025-01-24 14h47.04.312474 -0400,
,,,,,,,,,61,0,61,0,,,,,,,,,,,,,289.3453604999813,,,,,,,,,,,,,,,289.3305737999908,289.3453604999813,289.84585409998544,289.8300490999827,289.8300656999927,289.84585409998544,290.3298172800016,291.8478902000061,291.8317592999956,291.8317757000041,292.9825111999817,292.9825111999817,293.3667721999809,frog,resources/stimuli/frog.wav,left,left,1,369.0489000000525,left,1,0.3690489000000525,None,,,,,,,,,,,,,,,,,,,,,,,,,,,,,,,,,,,,,,,,,,,,,,,004,001,2025-01-24_14h46.24.780,NESC3137_N400_exp,2023.2.3,59.84429711001874,2025-01-24 14h47.04.312474 -0400,
,,,,,,,,,62,0,62,0,,,,,,,,,,,,,293.3827232999902,,,,,,,,,,,,,,,293.36794259998715,293.3827232999902,293.8832412000047,293.86711409999407,293.86712759998045,293.8832412000047,294.36706848000466,295.88608840000234,295.8690792999987,295.86909809999634,297.01966130000073,297.01966130000073,297.3208800999855,belt,resources/stimuli/belt.wav,left,left,1,298.89039997942746,left,1,0.29889039997942746,None,,,,,,,,,,,,,,,,,,,,,,,,,,,,,,,,,,,,,,,,,,,,,,,004,001,2025-01-24_14h46.24.780,NESC3137_N400_exp,2023.2.3,59.84429711001874,2025-01-24 14h47.04.312474 -0400,
,,,,,,,,,63,0,63,0,,,,,,,,,,,,,297.3367409000057,,,,,,,,,,,,,,,297.32229240000015,297.3367409000057,297.8372419999796,297.8208631000016,297.8208716000081,297.8372419999796,298.32098858000535,299.8391850999906,299.82283059999463,299.8228456999932,300.97362609999254,300.97362609999254,301.2580815999827,pipe,resources/stimuli/pipe_foil.wav,right,right,1,280.68809999967925,right,1,0.28068809999967925,None,,,,,,,,,,,,,,,,,,,,,,,,,,,,,,,,,,,,,,,,,,,,,,,004,001,2025-01-24_14h46.24.780,NESC3137_N400_exp,2023.2.3,59.84429711001874,2025-01-24 14h47.04.312474 -0400,
,,,,,,,,,64,0,64,0,,,,,,,,,,,,,301.2740225000016,,,,,,,,,,,,,,,301.2592137999891,301.2740225000016,301.77454079999006,301.7581268000067,301.7581387999817,301.77454079999006,302.258324979982,303.77669729999616,303.76021439998294,303.76023039998836,304.91091129998676,304.91091129998676,305.2789858999895,pot,resources/stimuli/pot_foil.wav,right,right,1,352.255999983754,right,1,0.352255999983754,None,,,,,,,,,,,,,,,,,,,,,,,,,,,,,,,,,,,,,,,,,,,,,,,004,001,2025-01-24_14h46.24.780,NESC3137_N400_exp,2023.2.3,59.84429711001874,2025-01-24 14h47.04.312474 -0400,
,,,,,,,,,65,0,65,0,,,,,,,,,,,,,305.2946693999984,,,,,,,,,,,,,,,305.2801579000079,305.2946693999984,305.79515930000343,305.77920389999053,305.77921469998546,305.79515930000343,306.27898147999366,307.797110399988,307.7813074000005,307.7813191000023,308.9316218000022,308.9316218000022,309.2160232999886,well,resources/stimuli/well_foil.wav,right,right,1,274.9016000016127,right,1,0.2749016000016127,None,,,,,,,,,,,,,,,,,,,,,,,,,,,,,,,,,,,,,,,,,,,,,,,004,001,2025-01-24_14h46.24.780,NESC3137_N400_exp,2023.2.3,59.84429711001874,2025-01-24 14h47.04.312474 -0400,
,,,,,,,,,66,0,66,0,,,,,,,,,,,,,309.2318666999927,,,,,,,,,,,,,,,309.21719799999846,309.2318666999927,309.7323502000072,309.7161445999809,309.7161552000034,309.7323502000072,310.2163617799844,311.7347891999816,311.71854549998534,311.7185618999938,312.86881220000214,312.86881220000214,313.1866722999839,lion,resources/stimuli/lion.wav,left,left,1,305.8000000019092,left,1,0.3058000000019092,None,,,,,,,,,,,,,,,,,,,,,,,,,,,,,,,,,,,,,,,,,,,,,,,004,001,2025-01-24_14h46.24.780,NESC3137_N400_exp,2023.2.3,59.84429711001874,2025-01-24 14h47.04.312474 -0400,
,,,,,,,,,67,0,67,0,,,,,,,,,,,,,313.20251499998267,,,,,,,,,,,,,,,313.18805919997976,313.20251499998267,313.70297589999973,313.6869796999963,313.6869979999901,313.70297589999973,314.1870890799939,315.70518349998747,315.6887585000077,315.68877179999254,316.8395693000057,316.8395693000057,317.34093829998164,deer,resources/stimuli/deer.wav,left,left,1,495.11389998951927,left,1,0.49511389998951927,None,,,,,,,,,,,,,,,,,,,,,,,,,,,,,,,,,,,,,,,,,,,,,,,004,001,2025-01-24_14h46.24.780,NESC3137_N400_exp,2023.2.3,59.84429711001874,2025-01-24 14h47.04.312474 -0400,
,,,,,,,,,68,0,68,0,,,,,,,,,,,,,317.3566753999912,,,,,,,,,,,,,,,317.34297909997986,317.3566753999912,317.8571804999956,317.8410584999947,317.8410684999835,317.8571804999956,318.35777268000237,319.85918639999,319.8429807999928,319.8429965999967,320.99359199998435,320.99359199998435,321.31119019998005,bread,resources/stimuli/bread.wav,left,left,1,308.9314000098966,left,1,0.3089314000098966,None,,,,,,,,,,,,,,,,,,,,,,,,,,,,,,,,,,,,,,,,,,,,,,,004,001,2025-01-24_14h46.24.780,NESC3137_N400_exp,2023.2.3,59.84429711001874,2025-01-24 14h47.04.312474 -0400,
,,,,,,,,,69,0,69,0,,,,,,,,,,,,,321.3273006999807,,,,,,,,,,,,,,,321.3123449999839,321.3273006999807,321.828359200008,321.8116159999918,321.8116265999852,321.828359200008,322.31169227999925,323.8297772000078,323.81353529999615,323.81355079999776,324.9646650000068,324.9646650000068,325.64918099998613,scissors,resources/stimuli/scissors_foil.wav,right,right,1,681.8445000099018,right,1,0.6818445000099018,None,,,,,,,,,,,,,,,,,,,,,,,,,,,,,,,,,,,,,,,,,,,,,,,004,001,2025-01-24_14h46.24.780,NESC3137_N400_exp,2023.2.3,59.84429711001874,2025-01-24 14h47.04.312474 -0400,
,,,,,,,,,70,0,70,0,,,,,,,,,,,,,325.6649292999937,,,,,,,,,,,,,,,325.6503686000069,325.6649292999937,326.16605070000514,326.1491921999841,326.14920319998055,326.16605070000514,326.6492614799965,328.1674955000053,328.15145069998107,328.15149910000036,329.30185409999103,329.30185409999103,329.61972650000826,squirrel,resources/stimuli/squirrel_foil.wav,right,right,1,304.40600001020357,right,1,0.30440600001020357,None,,,,,,,,,,,,,,,,,,,,,,,,,,,,,,,,,,,,,,,,,,,,,,,004,001,2025-01-24_14h46.24.780,NESC3137_N400_exp,2023.2.3,59.84429711001874,2025-01-24 14h47.04.312474 -0400,
,,,,,,,,,71,0,71,0,,,,,,,,,,,,,329.63556959998095,,,,,,,,,,,,,,,329.6208517999912,329.63556959998095,330.136087699997,330.1197504999873,330.11976450000657,330.136087699997,330.6200361799885,332.1380386999808,332.12213730000076,332.12215539999306,333.2725983999844,333.2725983999844,333.6406128999952,horse,resources/stimuli/horse.wav,left,left,1,350.6494000030216,left,1,0.3506494000030216,None,,,,,,,,,,,,,,,,,,,,,,,,,,,,,,,,,,,,,,,,,,,,,,,004,001,2025-01-24_14h46.24.780,NESC3137_N400_exp,2023.2.3,59.84429711001874,2025-01-24 14h47.04.312474 -0400,
,,,,,,,,,72,0,72,0,,,,,,,,,,,,,333.65624879999086,,,,,,,,,,,,,,,333.6416932999855,333.65624879999086,334.15702709998004,334.14062749998993,334.1406422999862,334.15702709998004,334.64067808000544,336.1587270000018,336.1425956999883,336.14261189999525,337.29327729999204,337.29327729999204,337.6109717999934,glasses,resources/stimuli/glasses.wav,left,left,1,305.6617000256665,left,1,0.3056617000256665,None,,,,,,,,,,,,,,,,,,,,,,,,,,,,,,,,,,,,,,,,,,,,,,,004,001,2025-01-24_14h46.24.780,NESC3137_N400_exp,2023.2.3,59.84429711001874,2025-01-24 14h47.04.312474 -0400,
,,,,,,,,,73,0,73,0,,,,,,,,,,,,,337.6269362999883,,,,,,,,,,,,,,,337.61224570000195,337.6269362999883,338.12744899999234,338.1112895999977,338.11130419999245,338.12744899999234,338.61124637999745,340.12943499998073,340.1133153999981,340.1133267999976,341.26414189999923,341.26414189999923,341.58210249998956,doorknob,resources/stimuli/doorknob.wav,left,left,1,302.87200000020675,left,1,0.30287200000020675,None,,,,,,,,,,,,,,,,,,,,,,,,,,,,,,,,,,,,,,,,,,,,,,,004,001,2025-01-24_14h46.24.780,NESC3137_N400_exp,2023.2.3,59.84429711001874,2025-01-24 14h47.04.312474 -0400,
,,,,,,,,,74,0,74,0,,,,,,,,,,,,,341.5978316999972,,,,,,,,,,,,,,,341.583429899998,341.5978316999972,342.0985482999822,342.08190409999224,342.08191829998395,342.0985482999822,342.581823579999,344.10000350000337,344.0839250999852,344.08393739999156,345.2344052999979,345.2344052999979,345.53549169999314,peach,resources/stimuli/peach.wav,left,left,1,292.75480000069365,left,1,0.29275480000069365,None,,,,,,,,,,,,,,,,,,,,,,,,,,,,,,,,,,,,,,,,,,,,,,,004,001,2025-01-24_14h46.24.780,NESC3137_N400_exp,2023.2.3,59.84429711001874,2025-01-24 14h47.04.312474 -0400,
,,,,,,,,,75,0,75,0,,,,,,,,,,,,,345.5517511999933,,,,,,,,,,,,,,,345.53660160000436,345.5517511999933,346.05187160000787,346.035896699992,346.0359106999822,346.05187160000787,346.5358534799918,348.0540356999845,348.0376488000038,348.0376590999949,349.18843259999994,349.18843259999994,349.489459799981,cloud,resources/stimuli/cloud_foil.wav,right,right,1,290.71480000857264,right,1,0.29071480000857264,None,,,,,,,,,,,,,,,,,,,,,,,,,,,,,,,,,,,,,,,,,,,,,,,004,001,2025-01-24_14h46.24.780,NESC3137_N400_exp,2023.2.3,59.84429711001874,2025-01-24 14h47.04.312474 -0400,
,,,,,,,,,76,0,76,0,,,,,,,,,,,,,349.50573949998943,,,,,,,,,,,,,,,349.4908263999969,349.50573949998943,350.00614899999346,349.98966560000554,349.9896841000009,350.00614899999346,350.48980127999965,352.0078799999901,351.991850099992,351.99186290000216,353.1423935999919,353.1423935999919,353.97762059999513,cannon,resources/stimuli/cannon_foil.wav,right,right,1,832.6832000166178,right,1,0.8326832000166178,None,,,,,,,,,,,,,,,,,,,,,,,,,,,,,,,,,,,,,,,,,,,,,,,004,001,2025-01-24_14h46.24.780,NESC3137_N400_exp,2023.2.3,59.84429711001874,2025-01-24 14h47.04.312474 -0400,
,,,,,,,,,77,0,77,0,,,,,,,,,,,,,353.99323130000266,,,,,,,,,,,,,,,353.97870619999594,353.99323130000266,354.49371360000805,354.4776201999921,354.47763609999674,354.49371360000805,354.97795728000636,356.4957884000032,356.47956700000213,356.4795790000062,357.6305804000003,357.6305804000003,358.28180219998467,thimble,resources/stimuli/thimble_foil.wav,right,right,1,639.9041999829933,right,1,0.6399041999829933,None,,,,,,,,,,,,,,,,,,,,,,,,,,,,,,,,,,,,,,,,,,,,,,,004,001,2025-01-24_14h46.24.780,NESC3137_N400_exp,2023.2.3,59.84429711001874,2025-01-24 14h47.04.312474 -0400,
,,,,,,,,,78,0,78,0,,,,,,,,,,,,,358.29757649998646,,,,,,,,,,,,,,,358.2831157000037,358.29757649998646,358.7984754999925,358.7818344999978,358.78184749998036,358.7984754999925,359.28188827997946,360.800009700004,360.7841194999928,360.7841368000081,361.9356414999929,361.9356414999929,362.5362594999897,moon,resources/stimuli/moon.wav,left,left,1,599.1070999880321,left,1,0.5991070999880321,None,,,,,,,,,,,,,,,,,,,,,,,,,,,,,,,,,,,,,,,,,,,,,,,004,001,2025-01-24_14h46.24.780,NESC3137_N400_exp,2023.2.3,59.84429711001874,2025-01-24 14h47.04.312474 -0400,
